index,time,type,FSR1,FSR2,FSR3,FSR4,FSR5,FSR6,FSR7,FSR8,GravX,GravY,GravZ,GyroX,GyroY,GyroZ,QuatW,QuatX,QuatY,QuatZ,LiAccX,LiAccY,LiAccZ,GyroCal,AccelCal,MagCal
4383,61.514763,t,511.0,511.0,464.0,72.0,388.0,280.0,440.0,490.0,9.67,-1.55,-0.39,-1.69,-2.12,7.5,0.69,-0.2,-0.08,-0.08,-0.33,-0.46,-1.16,0.0,1.0,3.0
4384,61.529796,t,511.0,511.0,470.0,71.0,386.0,279.0,437.0,496.0,9.66,-1.58,-0.4,-5.75,-0.88,9.25,0.69,-0.21,-0.09,-0.09,-0.5,-0.25,-0.49,0.0,1.0,3.0
4385,61.544825,t,511.0,511.0,469.0,74.0,390.0,276.0,440.0,498.0,9.66,-1.6,-0.4,-18.12,2.69,13.31,0.69,-0.22,-0.09,-0.09,-0.55,0.03,-1.07,0.0,1.0,3.0
4386,61.559877,t,511.0,511.0,461.0,70.0,392.0,272.0,439.0,498.0,9.65,-1.64,-0.4,-24.06,7.06,15.25,0.69,-0.22,-0.09,-0.09,-0.73,-0.13,-1.32,0.0,1.0,3.0
4387,61.574918,t,511.0,511.0,463.0,69.0,397.0,274.0,432.0,495.0,9.65,-1.69,-0.38,-22.44,9.06,15.75,0.68,-0.23,-0.11,-0.11,-0.85,-0.3,-1.36,0.0,1.0,3.0
4388,61.58899,t,511.0,511.0,457.0,69.0,401.0,266.0,434.0,501.0,9.64,-1.71,-0.37,-19.87,10.44,15.44,0.69,-0.23,-0.11,-0.11,-1.42,-0.66,-0.23,0.0,1.0,3.0
4389,61.605054,t,511.0,511.0,452.0,69.0,407.0,261.0,429.0,488.0,9.64,-1.74,-0.36,-19.0,9.75,14.69,0.69,-0.24,-0.11,-0.11,-1.59,-0.96,-0.13,0.0,1.0,3.0
4390,61.619105,t,511.0,511.0,442.0,69.0,407.0,253.0,427.0,476.0,9.63,-1.81,-0.33,-8.5,8.25,17.12,0.69,-0.25,-0.12,-0.12,-2.44,-1.61,-0.8,0.0,1.0,3.0
4391,61.634249,t,511.0,511.0,430.0,73.0,412.0,247.0,425.0,484.0,9.62,-1.84,-0.33,-8.31,4.31,19.44,0.69,-0.25,-0.12,-0.12,-2.51,-1.57,-0.2,0.0,1.0,3.0
4392,61.649364,t,511.0,511.0,419.0,69.0,410.0,242.0,416.0,492.0,9.61,-1.88,-0.33,-10.88,0.56,20.94,0.69,-0.26,-0.11,-0.11,-2.47,-1.83,-0.04,0.0,1.0,3.0
4393,61.664481,t,511.0,511.0,417.0,68.0,412.0,241.0,407.0,498.0,9.6,-1.96,-0.34,-1.62,-1.94,24.56,0.69,-0.26,-0.11,-0.11,-1.9,-1.77,-0.13,0.0,1.0,3.0
4394,61.67955,t,511.0,511.0,408.0,68.0,410.0,236.0,402.0,477.0,9.59,-2.0,-0.34,2.25,0.88,26.81,0.68,-0.27,-0.12,-0.12,-1.49,-1.68,-0.15,0.0,1.0,3.0
4395,61.694671,t,511.0,511.0,397.0,72.0,415.0,232.0,393.0,457.0,9.57,-2.1,-0.28,12.5,20.87,30.44,0.69,-0.27,-0.12,-0.12,-1.13,-0.96,-0.77,0.0,1.0,3.0
4396,61.7097,t,511.0,511.0,386.0,76.0,421.0,234.0,385.0,454.0,9.55,-2.2,-0.16,1.31,35.63,31.75,0.69,-0.27,-0.11,-0.11,-2.06,0.07,-0.56,0.0,1.0,3.0
4397,61.724728999999996,t,511.0,511.0,378.0,78.0,419.0,228.0,377.0,454.0,9.54,-2.26,-0.11,-1.06,35.69,32.06,0.69,-0.28,-0.12,-0.12,-2.48,0.03,-1.29,0.0,1.0,3.0
4398,61.739761,t,511.0,511.0,367.0,78.0,416.0,230.0,377.0,455.0,9.52,-2.31,-0.05,-1.06,35.69,32.06,0.69,-0.28,-0.12,-0.12,-3.01,-0.4,-1.63,0.0,1.0,3.0
4399,61.754765,t,511.0,511.0,355.0,80.0,427.0,234.0,365.0,458.0,9.51,-2.36,-0.01,-1.94,22.44,29.56,0.7,-0.29,-0.12,-0.12,-2.88,-0.54,-0.73,0.0,1.0,3.0
4400,61.769826,t,511.0,511.0,333.0,80.0,434.0,238.0,345.0,446.0,9.48,-2.5,0.06,-16.56,18.56,29.25,0.7,-0.3,-0.12,-0.12,-1.83,-1.3,-1.27,0.0,1.0,3.0
4401,61.784889,t,511.0,511.0,328.0,79.0,435.0,236.0,342.0,444.0,9.46,-2.55,0.08,-16.56,18.56,29.25,0.7,-0.3,-0.12,-0.12,-1.83,-1.04,-1.41,0.0,1.0,3.0
4402,61.799975,t,511.0,511.0,314.0,79.0,438.0,237.0,334.0,437.0,9.45,-2.6,0.11,-15.06,22.31,31.94,0.7,-0.3,-0.12,-0.12,-1.76,-0.78,-2.06,0.0,1.0,3.0
4403,61.814065,t,511.0,511.0,299.0,79.0,447.0,240.0,339.0,425.0,9.43,-2.65,0.15,-15.25,26.69,34.19,0.7,-0.31,-0.12,-0.12,-1.42,-2.57,-2.53,0.0,1.0,3.0
4404,61.82923,t,511.0,511.0,261.0,76.0,472.0,241.0,326.0,419.0,9.4,-2.78,0.24,-26.19,36.5,46.13,0.71,-0.31,-0.12,-0.12,-1.62,-2.7,-2.19,0.0,1.0,3.0
4405,61.844374,t,510.0,511.0,238.0,75.0,486.0,246.0,314.0,399.0,9.34,-2.95,0.34,-25.12,43.63,56.75,0.71,-0.32,-0.12,-0.12,-1.99,-3.3,-1.3,0.0,1.0,3.0
4406,61.859459,t,499.0,511.0,206.0,74.0,511.0,250.0,309.0,401.0,9.3,-3.06,0.4,-31.56,47.94,69.5,0.71,-0.32,-0.12,-0.12,-1.78,-3.97,-0.74,0.0,1.0,3.0
4407,61.874689000000004,t,502.0,458.0,154.0,73.0,474.0,224.0,278.0,364.0,9.19,-3.36,0.48,-47.56,36.69,98.87,0.72,-0.34,-0.12,-0.12,0.3,-5.59,-0.32,0.0,1.0,3.0
4408,61.889842,t,485.0,436.0,135.0,74.0,450.0,220.0,264.0,356.0,9.12,-3.55,0.49,-47.31,25.69,116.37,0.72,-0.35,-0.11,-0.11,3.26,-6.09,1.02,0.0,1.0,3.0
4409,61.904848,t,451.0,400.0,134.0,73.0,410.0,207.0,251.0,330.0,8.94,-3.99,0.45,-35.75,-4.62,146.12,0.72,-0.36,-0.1,-0.1,6.99,-5.48,0.78,0.0,1.0,3.0
4410,61.919881,t,401.0,371.0,140.0,75.0,374.0,195.0,244.0,282.0,8.71,-4.48,0.35,-9.56,-26.44,166.19,0.72,-0.38,-0.08,-0.08,11.52,-0.06,-0.04,0.0,1.0,3.0
4411,61.934913,t,334.0,314.0,137.0,74.0,332.0,189.0,240.0,269.0,8.57,-4.74,0.33,2.94,-19.75,175.19,0.72,-0.39,-0.07,-0.07,11.04,2.12,-0.54,0.0,1.0,3.0
4412,61.948974,t,329.0,309.0,140.0,72.0,318.0,191.0,253.0,260.0,8.42,-5.0,0.32,11.31,-8.56,178.69,0.72,-0.41,-0.04,-0.04,9.9,3.3,-0.16,0.0,1.0,3.0
4413,61.964992,t,325.0,306.0,140.0,70.0,308.0,196.0,262.0,260.0,8.11,-5.49,0.34,-7.44,8.81,167.5,0.72,-0.42,-0.03,-0.03,6.57,3.86,0.47,0.0,1.0,3.0
4414,61.97906,t,335.0,306.0,137.0,69.0,305.0,210.0,275.0,266.0,7.82,-5.9,0.32,-24.19,7.12,142.62,0.72,-0.43,-0.02,-0.02,3.83,2.02,-0.34,0.0,1.0,3.0
4415,61.995202,t,352.0,317.0,135.0,69.0,310.0,213.0,280.0,283.0,7.69,-6.07,0.29,-25.87,-2.5,122.5,0.72,-0.44,-0.01,-0.01,2.38,-0.26,-1.53,0.0,1.0,3.0
4416,62.010308,t,370.0,325.0,133.0,69.0,331.0,223.0,289.0,298.0,7.58,-6.2,0.26,-11.88,-11.94,101.56,0.72,-0.45,0.0,0.0,2.19,0.53,0.35,0.0,1.0,3.0
4417,62.024468,t,390.0,331.0,131.0,68.0,343.0,231.0,290.0,319.0,7.5,-6.31,0.24,21.25,-29.25,67.94,0.72,-0.45,0.01,0.01,2.74,0.9,1.07,0.0,1.0,3.0
4418,62.03959,t,408.0,329.0,126.0,69.0,364.0,247.0,296.0,343.0,7.32,-6.51,0.26,42.63,-17.69,41.25,0.72,-0.45,0.02,0.02,2.72,1.4,1.84,0.0,1.0,3.0
4419,62.054653,t,430.0,328.0,132.0,70.0,382.0,249.0,298.0,362.0,7.29,-6.54,0.3,53.75,-12.38,27.25,0.72,-0.45,0.02,0.02,2.73,1.09,2.05,0.0,1.0,3.0
4420,62.069685,t,436.0,334.0,130.0,68.0,378.0,246.0,292.0,355.0,7.27,-6.56,0.36,63.81,-6.75,16.94,0.72,-0.44,0.03,0.03,1.36,2.52,1.76,0.0,1.0,3.0
4421,62.084689,t,407.0,330.0,131.0,69.0,378.0,243.0,299.0,346.0,7.26,-6.57,0.44,75.37,-6.44,9.38,0.73,-0.44,0.04,0.04,0.11,3.59,1.43,0.0,1.0,3.0
4422,62.099748,t,383.0,319.0,130.0,69.0,366.0,233.0,282.0,312.0,7.29,-6.5,0.74,89.56,4.37,-23.0,0.73,-0.42,0.04,0.04,-0.39,5.85,0.99,0.0,1.0,3.0
4423,62.114752,t,386.0,323.0,116.0,69.0,346.0,227.0,266.0,294.0,7.33,-6.45,0.84,75.75,6.19,-36.75,0.74,-0.42,0.04,0.04,-0.63,6.02,0.6,0.0,1.0,3.0
4424,62.129755,t,380.0,323.0,106.0,68.0,334.0,223.0,257.0,299.0,7.39,-6.37,0.92,64.25,10.94,-50.19,0.74,-0.41,0.04,0.04,-1.08,5.98,-0.44,0.0,1.0,3.0
4425,62.144787,t,358.0,305.0,102.0,68.0,314.0,210.0,241.0,294.0,7.53,-6.18,1.01,-2.31,-3.12,-88.87,0.74,-0.4,0.03,0.03,-1.99,5.83,0.05,0.0,1.0,3.0
4426,62.159791,t,345.0,294.0,100.0,69.0,304.0,201.0,231.0,284.0,7.73,-5.94,0.97,-23.25,-7.19,-100.81,0.74,-0.39,0.02,0.02,-1.73,5.43,0.35,0.0,1.0,3.0
4427,62.174794,t,339.0,275.0,101.0,68.0,291.0,196.0,217.0,279.0,7.84,-5.8,0.92,-39.63,-6.25,-109.56,0.74,-0.39,0.01,0.01,-1.61,4.98,0.67,0.0,1.0,3.0
4428,62.189797,t,337.0,262.0,101.0,69.0,277.0,191.0,213.0,275.0,7.96,-5.65,0.87,-53.44,-2.37,-114.69,0.74,-0.39,0.0,0.0,-1.56,3.98,0.0,0.0,1.0,3.0
4429,62.204801,t,326.0,227.0,102.0,68.0,256.0,183.0,206.0,265.0,8.18,-5.34,0.72,-84.62,-6.37,-123.12,0.73,-0.39,-0.03,-0.03,-1.42,0.72,0.26,0.0,1.0,3.0
4430,62.219803999999996,t,307.0,223.0,103.0,69.0,251.0,167.0,206.0,261.0,8.41,-5.01,0.55,-80.31,-11.88,-122.81,0.73,-0.38,-0.04,-0.04,-1.49,-0.15,0.19,0.0,1.0,3.0
4431,62.234808,t,300.0,227.0,105.0,69.0,247.0,154.0,206.0,252.0,8.51,-4.83,0.47,-69.37,-15.19,-122.69,0.72,-0.38,-0.05,-0.05,-2.01,-0.42,0.1,0.0,1.0,3.0
4432,62.249811,t,287.0,234.0,108.0,69.0,246.0,156.0,214.0,260.0,8.61,-4.66,0.4,-56.94,-16.44,-122.0,0.72,-0.38,-0.06,-0.06,-2.23,-0.87,0.0,0.0,1.0,3.0
4433,62.264875,t,300.0,263.0,104.0,74.0,235.0,165.0,218.0,246.0,8.8,-4.31,0.26,-42.94,-24.75,-117.0,0.71,-0.37,-0.09,-0.09,-1.25,-2.44,-1.09,0.0,1.0,3.0
4434,62.279982,t,313.0,287.0,99.0,73.0,228.0,164.0,217.0,249.0,8.88,-4.14,0.19,-30.19,-22.31,-101.31,0.71,-0.37,-0.09,-0.09,-0.95,-3.08,-1.33,0.0,1.0,3.0
4435,62.295015,t,329.0,311.0,98.0,76.0,229.0,166.0,218.0,259.0,9.01,-3.85,0.1,-16.37,-18.62,-90.44,0.7,-0.36,-0.1,-0.1,-1.65,-3.53,-1.4,0.0,1.0,3.0
4436,62.310079,t,374.0,334.0,102.0,72.0,239.0,180.0,230.0,286.0,9.11,-3.61,0.06,12.19,-12.38,-70.25,0.7,-0.36,-0.11,-0.11,-2.95,-3.59,-1.65,0.0,1.0,3.0
4437,62.324207,t,387.0,340.0,105.0,71.0,244.0,188.0,232.0,296.0,9.15,-3.52,0.06,27.0,-13.38,-61.31,0.7,-0.35,-0.11,-0.11,-3.33,-3.61,-1.58,0.0,1.0,3.0
4438,62.339357,t,398.0,343.0,106.0,70.0,245.0,191.0,236.0,303.0,9.18,-3.43,0.06,42.44,-13.06,-53.81,0.7,-0.34,-0.11,-0.11,-3.07,-2.64,-0.95,0.0,1.0,3.0
4439,62.354498,t,405.0,353.0,107.0,70.0,248.0,194.0,238.0,306.0,9.23,-3.29,0.1,63.63,-10.81,-41.25,0.7,-0.33,-0.11,-0.11,-3.27,-1.77,-0.06,0.0,1.0,3.0
4440,62.369607,t,407.0,365.0,109.0,70.0,252.0,201.0,244.0,326.0,9.27,-3.17,0.11,56.5,-16.56,-33.75,0.7,-0.32,-0.11,-0.11,-3.19,-1.14,-0.71,0.0,1.0,3.0
4441,62.384694,t,410.0,374.0,109.0,70.0,252.0,206.0,249.0,330.0,9.29,-3.12,0.11,55.69,-19.31,-30.75,0.7,-0.32,-0.1,-0.1,-3.54,-0.88,-0.92,0.0,1.0,3.0
4442,62.399763,t,407.0,376.0,112.0,70.0,255.0,210.0,258.0,330.0,9.3,-3.08,0.11,60.94,-24.56,-28.31,0.7,-0.31,-0.1,-0.1,-3.76,-0.38,-0.68,0.0,1.0,3.0
4443,62.414807,t,404.0,387.0,120.0,69.0,253.0,200.0,254.0,331.0,9.33,-2.99,0.06,69.12,-37.81,-25.5,0.7,-0.3,-0.09,-0.09,-2.85,2.33,1.32,0.0,1.0,3.0
4444,62.429862,t,443.0,422.0,143.0,78.0,290.0,190.0,298.0,360.0,9.35,-2.93,0.0,75.0,-53.06,-16.87,0.7,-0.29,-0.09,-0.09,-2.05,2.54,1.18,0.0,1.0,3.0
4445,62.444865,t,480.0,479.0,194.0,75.0,302.0,191.0,308.0,389.0,9.36,-2.9,-0.09,55.94,-72.31,-14.56,0.7,-0.29,-0.08,-0.08,2.94,0.2,0.59,0.0,1.0,3.0
4446,62.459869,t,511.0,511.0,230.0,80.0,312.0,206.0,324.0,416.0,9.37,-2.88,-0.24,22.87,-98.75,-17.12,0.69,-0.29,-0.08,-0.08,7.12,-0.28,0.34,0.0,1.0,3.0
4447,62.474872,t,511.0,511.0,254.0,76.0,330.0,212.0,326.0,430.0,9.38,-2.79,-0.56,-41.69,-62.13,-13.75,0.68,-0.29,-0.08,-0.08,2.83,-4.09,4.2,0.0,1.0,3.0
4448,62.489875,t,511.0,511.0,255.0,77.0,328.0,210.0,324.0,434.0,9.36,-2.79,-0.78,-81.31,-32.31,22.69,0.67,-0.29,-0.08,-0.08,2.19,-6.45,-2.96,0.0,1.0,3.0
4449,62.504931,t,511.0,511.0,275.0,78.0,307.0,210.0,332.0,424.0,9.33,-2.89,-0.81,-68.06,-3.0,64.87,0.67,-0.3,-0.08,-0.08,1.47,-4.36,-4.53,0.0,1.0,3.0
4450,62.519295,t,511.0,511.0,310.0,77.0,305.0,216.0,366.0,426.0,9.23,-3.18,-0.82,-26.44,3.19,98.87,0.67,-0.32,-0.07,-0.07,8.76,-0.98,-2.46,0.0,1.0,3.0
4451,62.534346,t,511.0,511.0,329.0,74.0,317.0,206.0,352.0,418.0,9.19,-3.31,-0.85,-35.88,-9.06,83.69,0.67,-0.33,-0.07,-0.07,10.19,-3.46,-3.44,0.0,1.0,3.0
4452,62.54947,t,511.0,511.0,306.0,76.0,312.0,204.0,332.0,422.0,9.12,-3.48,-0.87,-43.44,22.44,56.56,0.67,-0.33,-0.07,-0.07,4.78,2.71,-2.87,0.0,1.0,3.0
4453,62.564591,t,511.0,511.0,285.0,77.0,298.0,202.0,331.0,395.0,9.09,-3.57,-0.83,-33.19,38.31,60.25,0.67,-0.34,-0.07,-0.07,5.15,5.71,-1.42,0.0,1.0,3.0
4454,62.579594,t,497.0,511.0,277.0,79.0,294.0,203.0,337.0,348.0,9.05,-3.69,-0.71,-17.56,45.63,26.12,0.68,-0.35,-0.07,-0.07,4.65,3.3,-3.04,0.0,1.0,3.0
4455,62.594676,t,481.0,511.0,282.0,77.0,299.0,209.0,353.0,361.0,9.05,-3.69,-0.67,-9.31,27.69,1.19,0.68,-0.34,-0.07,-0.07,6.01,0.06,-0.59,0.0,1.0,3.0
4456,62.609704,t,484.0,511.0,292.0,77.0,302.0,218.0,353.0,386.0,9.08,-3.63,-0.65,13.63,1.19,-22.37,0.68,-0.34,-0.07,-0.07,6.09,0.43,-1.32,0.0,1.0,3.0
4457,62.624763,t,492.0,511.0,302.0,79.0,310.0,214.0,342.0,396.0,9.12,-3.54,-0.63,23.69,-3.62,-36.56,0.68,-0.34,-0.07,-0.07,4.65,3.31,-1.19,0.0,1.0,3.0
4458,62.639792,t,511.0,511.0,315.0,75.0,315.0,214.0,341.0,401.0,9.15,-3.46,-0.62,22.06,-0.37,-48.56,0.68,-0.33,-0.08,-0.08,3.96,2.44,-1.16,0.0,1.0,3.0
4459,62.654796,t,511.0,511.0,319.0,77.0,319.0,214.0,342.0,404.0,9.18,-3.37,-0.6,21.69,4.37,-59.25,0.68,-0.32,-0.08,-0.08,1.89,0.22,-0.84,0.0,1.0,3.0
4460,62.669799,t,511.0,511.0,324.0,75.0,319.0,213.0,341.0,400.0,9.22,-3.27,-0.57,32.13,10.94,-67.44,0.68,-0.32,-0.08,-0.08,1.09,0.24,-0.63,0.0,1.0,3.0
4461,62.684802,t,506.0,511.0,327.0,76.0,329.0,217.0,344.0,396.0,9.33,-2.96,-0.45,40.81,14.25,-66.75,0.68,-0.3,-0.09,-0.09,0.1,0.17,-0.59,0.0,1.0,3.0
4462,62.699808,t,506.0,511.0,330.0,76.0,333.0,216.0,347.0,396.0,9.37,-2.85,-0.4,40.44,15.81,-65.69,0.69,-0.3,-0.09,-0.09,-0.78,0.2,-0.79,0.0,1.0,3.0
4463,62.714809,t,506.0,511.0,338.0,74.0,338.0,219.0,347.0,394.0,9.4,-2.75,-0.36,37.63,15.81,-64.37,0.69,-0.29,-0.09,-0.09,-1.16,0.01,-0.85,0.0,1.0,3.0
4464,62.729842,t,508.0,511.0,340.0,72.0,342.0,223.0,348.0,398.0,9.43,-2.65,-0.32,33.44,12.06,-62.75,0.69,-0.28,-0.1,-0.1,-1.57,-0.53,-0.88,0.0,1.0,3.0
4465,62.744871,t,511.0,511.0,338.0,74.0,354.0,233.0,363.0,423.0,9.5,-2.37,-0.26,29.56,3.44,-55.31,0.69,-0.27,-0.1,-0.1,-1.72,-1.82,-0.79,0.0,1.0,3.0
4466,62.759935,t,511.0,511.0,338.0,73.0,366.0,233.0,363.0,440.0,9.53,-2.29,-0.24,31.69,4.56,-51.25,0.69,-0.27,-0.1,-0.1,-2.01,-2.32,-0.76,0.0,1.0,3.0
4467,62.774967000000004,t,511.0,511.0,341.0,73.0,366.0,237.0,361.0,435.0,9.54,-2.22,-0.22,35.88,5.62,-46.25,0.69,-0.26,-0.1,-0.1,-3.38,-2.59,-0.4,0.0,1.0,3.0
4468,62.789023,t,511.0,511.0,346.0,72.0,371.0,227.0,350.0,425.0,9.57,-2.09,-0.17,38.56,7.19,-35.31,0.69,-0.25,-0.1,-0.1,-3.65,-2.57,-0.26,0.0,1.0,3.0
4469,62.804115,t,511.0,511.0,352.0,70.0,383.0,228.0,351.0,430.0,9.58,-2.04,-0.14,28.0,8.56,-24.94,0.7,-0.25,-0.1,-0.1,-4.74,-2.89,0.08,0.0,1.0,3.0
4470,62.819146,t,511.0,511.0,352.0,70.0,393.0,228.0,351.0,433.0,9.6,-1.97,-0.1,23.25,7.62,-18.25,0.7,-0.24,-0.1,-0.1,-4.85,-2.83,-0.05,0.0,1.0,3.0
4471,62.835152,t,511.0,511.0,356.0,70.0,403.0,230.0,345.0,438.0,9.6,-1.96,-0.08,19.5,6.56,-10.81,0.7,-0.24,-0.1,-0.1,-4.93,-2.66,-0.62,0.0,1.0,3.0
4472,62.84924,t,511.0,511.0,352.0,76.0,419.0,229.0,345.0,436.0,9.6,-1.96,-0.05,6.87,8.19,2.87,0.7,-0.24,-0.1,-0.1,-4.44,-2.98,-0.18,0.0,1.0,3.0
4473,62.864272,t,511.0,511.0,351.0,78.0,417.0,229.0,342.0,436.0,9.6,-1.97,-0.03,-1.12,9.56,11.13,0.7,-0.24,-0.1,-0.1,-4.01,-2.22,-0.04,0.0,1.0,3.0
4474,62.879401,t,511.0,511.0,349.0,78.0,412.0,227.0,341.0,435.0,9.59,-2.01,-0.02,-14.0,15.94,26.62,0.7,-0.24,-0.1,-0.1,-3.85,-1.63,-0.17,0.0,1.0,3.0
4475,62.894542,t,511.0,511.0,349.0,78.0,411.0,227.0,346.0,426.0,9.57,-2.1,0.02,-21.75,21.81,30.87,0.7,-0.25,-0.1,-0.1,-3.87,-0.56,-0.87,0.0,1.0,3.0
4476,62.909657,t,511.0,511.0,326.0,76.0,396.0,227.0,342.0,395.0,9.55,-2.22,0.09,-28.31,25.62,36.13,0.7,-0.25,-0.1,-0.1,-3.92,-0.07,-0.51,0.0,1.0,3.0
4477,62.924686,t,506.0,511.0,310.0,76.0,398.0,226.0,336.0,387.0,9.53,-2.28,0.11,-35.69,22.75,38.19,0.7,-0.26,-0.1,-0.1,-2.77,0.01,-1.39,0.0,1.0,3.0
4478,62.939690999999996,t,494.0,511.0,287.0,78.0,406.0,230.0,346.0,397.0,9.51,-2.35,0.13,-43.69,23.62,39.5,0.71,-0.27,-0.1,-0.1,-2.3,-0.15,-1.7,0.0,1.0,3.0
4479,62.954692,t,511.0,511.0,264.0,79.0,415.0,220.0,324.0,402.0,9.46,-2.55,0.22,-52.63,31.87,40.94,0.71,-0.28,-0.1,-0.1,-1.67,-2.12,-2.25,0.0,1.0,3.0
4480,62.969724,t,511.0,511.0,251.0,78.0,418.0,220.0,315.0,402.0,9.44,-2.62,0.25,-51.38,31.06,42.19,0.71,-0.29,-0.11,-0.11,-1.7,-2.24,-1.79,0.0,1.0,3.0
4481,62.984728,t,511.0,511.0,243.0,78.0,422.0,218.0,307.0,397.0,9.42,-2.69,0.28,-47.06,30.75,44.88,0.71,-0.29,-0.11,-0.11,-1.6,-2.19,-1.84,0.0,1.0,3.0
4482,62.999761,t,511.0,511.0,218.0,77.0,436.0,216.0,303.0,376.0,9.39,-2.77,0.31,-44.69,33.63,49.0,0.71,-0.3,-0.11,-0.11,-1.61,-1.95,-0.82,0.0,1.0,3.0
4483,63.014816,t,504.0,471.0,158.0,76.0,440.0,212.0,273.0,350.0,9.29,-3.1,0.39,-56.19,29.81,78.94,0.71,-0.32,-0.11,-0.11,1.45,-6.2,-0.14,0.0,1.0,3.0
4484,63.029878,t,490.0,426.0,133.0,76.0,446.0,212.0,253.0,336.0,9.23,-3.26,0.4,-58.63,28.19,96.5,0.71,-0.33,-0.11,-0.11,3.92,-6.73,0.81,0.0,1.0,3.0
4485,63.044881000000004,t,457.0,397.0,120.0,76.0,422.0,210.0,243.0,322.0,9.17,-3.45,0.4,-55.56,23.94,115.19,0.71,-0.34,-0.11,-0.11,5.47,-6.16,1.51,0.0,1.0,3.0
4486,63.058969,t,358.0,319.0,122.0,80.0,353.0,191.0,220.0,276.0,8.98,-3.9,0.38,-44.44,5.19,153.0,0.71,-0.37,-0.09,-0.09,10.86,-1.82,1.0,0.0,1.0,3.0
4487,63.075028,t,315.0,280.0,113.0,81.0,334.0,185.0,216.0,255.0,8.86,-4.16,0.35,-31.44,-2.12,185.56,0.71,-0.38,-0.08,-0.08,11.07,-1.22,-0.25,0.0,1.0,3.0
4488,63.089128,t,298.0,267.0,105.0,78.0,318.0,184.0,222.0,244.0,8.57,-4.75,0.3,-17.37,-4.75,200.94,0.71,-0.39,-0.07,-0.07,11.35,-0.54,0.45,0.0,1.0,3.0
4489,63.105158,t,283.0,263.0,110.0,78.0,311.0,182.0,226.0,244.0,8.39,-5.05,0.3,-10.38,3.25,205.87,0.72,-0.4,-0.06,-0.06,10.47,0.01,1.5,0.0,1.0,3.0
4490,63.119338,t,278.0,244.0,120.0,69.0,299.0,191.0,241.0,248.0,8.03,-5.61,0.35,-4.62,20.81,193.25,0.72,-0.43,-0.02,-0.02,5.27,3.47,1.06,0.0,1.0,3.0
4491,63.134445,t,285.0,245.0,120.0,69.0,301.0,199.0,253.0,248.0,7.71,-6.03,0.35,-6.87,-2.0,141.56,0.72,-0.44,-0.02,-0.02,2.5,3.27,-0.07,0.0,1.0,3.0
4492,63.149585,t,292.0,255.0,115.0,69.0,298.0,202.0,260.0,253.0,7.6,-6.18,0.32,-3.44,-14.81,110.37,0.72,-0.44,-0.01,-0.01,1.95,1.85,-0.14,0.0,1.0,3.0
4493,63.164589,t,306.0,240.0,107.0,69.0,299.0,212.0,264.0,256.0,7.51,-6.29,0.3,4.0,-22.75,82.87,0.72,-0.45,0.0,0.0,3.26,1.15,0.83,0.0,1.0,3.0
4494,63.179686,t,346.0,243.0,110.0,68.0,308.0,216.0,246.0,268.0,7.41,-6.41,0.27,16.94,-23.56,36.88,0.72,-0.45,0.01,0.01,3.17,0.51,1.02,0.0,1.0,3.0
4495,63.194716,t,350.0,242.0,109.0,69.0,309.0,221.0,240.0,272.0,7.37,-6.45,0.28,43.75,-20.06,14.44,0.72,-0.45,0.01,0.01,2.08,2.04,2.42,0.0,1.0,3.0
4496,63.209778,t,344.0,230.0,109.0,68.0,306.0,217.0,234.0,273.0,7.37,-6.45,0.33,54.88,-13.38,6.06,0.72,-0.45,0.02,0.02,2.08,2.69,2.72,0.0,1.0,3.0
4497,63.224781,t,304.0,220.0,113.0,69.0,293.0,207.0,230.0,258.0,7.4,-6.41,0.44,47.81,4.75,-20.75,0.72,-0.44,0.02,0.02,1.05,4.98,1.49,0.0,1.0,3.0
4498,63.239784,t,307.0,231.0,107.0,68.0,290.0,196.0,224.0,254.0,7.44,-6.36,0.51,43.31,12.63,-37.06,0.73,-0.43,0.02,0.02,0.9,5.71,0.92,0.0,1.0,3.0
4499,63.254788,t,316.0,241.0,109.0,68.0,281.0,194.0,223.0,250.0,7.49,-6.29,0.57,27.06,24.06,-67.5,0.73,-0.42,0.01,0.01,-1.33,8.44,0.27,0.0,1.0,3.0
4500,63.269791,t,331.0,240.0,108.0,68.0,268.0,190.0,218.0,250.0,7.64,-6.09,0.67,4.25,23.69,-79.69,0.73,-0.42,0.01,0.01,-1.88,7.94,-0.39,0.0,1.0,3.0
4501,63.284795,t,328.0,227.0,108.0,69.0,258.0,172.0,206.0,254.0,7.85,-5.83,0.68,-25.12,17.94,-107.06,0.73,-0.41,-0.01,-0.01,-2.72,7.36,0.16,0.0,1.0,3.0
4502,63.299798,t,322.0,219.0,111.0,69.0,246.0,159.0,201.0,249.0,7.96,-5.67,0.66,-35.5,14.69,-120.31,0.73,-0.41,-0.03,-0.03,-2.41,4.19,0.58,0.0,1.0,3.0
4503,63.31486,t,309.0,204.0,112.0,68.0,238.0,146.0,198.0,241.0,8.09,-5.49,0.64,-49.56,9.31,-140.62,0.73,-0.4,-0.04,-0.04,-2.34,3.46,0.57,0.0,1.0,3.0
4504,63.329863,t,296.0,191.0,115.0,68.0,232.0,142.0,194.0,240.0,8.35,-5.1,0.56,-52.5,3.0,-144.56,0.73,-0.4,-0.05,-0.05,-1.85,1.32,0.16,0.0,1.0,3.0
4505,63.344867,t,286.0,200.0,114.0,68.0,226.0,140.0,189.0,238.0,8.47,-4.9,0.52,-49.0,-3.0,-144.5,0.72,-0.39,-0.07,-0.07,-1.59,-0.7,-0.29,0.0,1.0,3.0
4506,63.3599,t,272.0,223.0,100.0,77.0,224.0,141.0,191.0,228.0,8.7,-4.49,0.43,-34.44,-9.19,-138.0,0.72,-0.39,-0.08,-0.08,-1.57,-1.62,-0.61,0.0,1.0,3.0
4507,63.374933,t,270.0,233.0,96.0,77.0,222.0,149.0,194.0,230.0,8.8,-4.29,0.4,-23.31,-6.19,-132.0,0.71,-0.38,-0.1,-0.1,-2.2,-2.29,-0.56,0.0,1.0,3.0
4508,63.389937,t,285.0,240.0,97.0,78.0,215.0,149.0,188.0,229.0,8.89,-4.1,0.39,-2.12,-4.12,-121.31,0.71,-0.37,-0.11,-0.11,-2.47,-2.24,-0.15,0.0,1.0,3.0
4509,63.405,t,307.0,285.0,109.0,81.0,218.0,160.0,206.0,242.0,9.12,-3.57,0.36,5.44,-9.88,-106.87,0.71,-0.36,-0.12,-0.12,-2.07,-3.2,-0.93,0.0,1.0,3.0
4510,63.419003000000004,t,317.0,303.0,114.0,77.0,227.0,160.0,212.0,249.0,9.18,-3.41,0.35,12.69,-10.06,-100.94,0.71,-0.35,-0.13,-0.13,-2.43,-3.4,-0.88,0.0,1.0,3.0
4511,63.434066,t,335.0,311.0,112.0,78.0,230.0,162.0,222.0,264.0,9.24,-3.26,0.35,21.75,-8.56,-93.69,0.71,-0.35,-0.13,-0.13,-3.09,-3.86,-0.96,0.0,1.0,3.0
4512,63.449159,t,364.0,315.0,110.0,78.0,234.0,170.0,224.0,279.0,9.28,-3.12,0.39,60.75,-4.62,-61.25,0.71,-0.33,-0.14,-0.14,-4.05,-3.75,-1.76,0.0,1.0,3.0
4513,63.464264,t,392.0,317.0,106.0,78.0,241.0,177.0,233.0,307.0,9.38,-2.82,0.42,73.44,-1.44,-48.44,0.71,-0.32,-0.14,-0.14,-4.33,-3.3,-1.66,0.0,1.0,3.0
4514,63.479325,t,400.0,319.0,106.0,78.0,245.0,181.0,234.0,322.0,9.4,-2.75,0.45,85.25,-6.56,-37.69,0.71,-0.31,-0.13,-0.13,-4.29,-2.18,-1.2,0.0,1.0,3.0
4515,63.494368,t,419.0,326.0,106.0,78.0,245.0,186.0,234.0,326.0,9.41,-2.69,0.47,91.87,-16.81,-30.44,0.71,-0.3,-0.13,-0.13,-3.83,-1.82,-0.85,0.0,1.0,3.0
4516,63.509449000000004,t,424.0,342.0,110.0,75.0,248.0,186.0,235.0,328.0,9.45,-2.57,0.43,80.75,-35.0,-14.63,0.71,-0.29,-0.12,-0.12,-3.28,0.31,0.61,0.0,1.0,3.0
4517,63.52457,t,422.0,354.0,119.0,74.0,254.0,170.0,246.0,334.0,9.45,-2.55,0.4,64.19,-36.81,-8.06,0.71,-0.28,-0.11,-0.11,-3.48,1.09,1.05,0.0,1.0,3.0
4518,63.539665,t,433.0,378.0,131.0,76.0,265.0,161.0,260.0,338.0,9.46,-2.55,0.35,48.06,-41.88,-1.12,0.71,-0.28,-0.11,-0.11,-3.52,1.76,1.37,0.0,1.0,3.0
4519,63.554703,t,463.0,423.0,179.0,77.0,281.0,178.0,287.0,361.0,9.46,-2.56,0.27,35.38,-59.25,5.25,0.7,-0.28,-0.1,-0.1,-3.32,2.06,1.59,0.0,1.0,3.0
4520,63.569761,t,511.0,511.0,252.0,80.0,301.0,210.0,327.0,414.0,9.46,-2.58,-0.04,-0.19,-104.37,-6.62,0.69,-0.28,-0.1,-0.1,8.68,2.92,-0.07,0.0,1.0,3.0
4521,63.58483,t,511.0,511.0,278.0,78.0,303.0,218.0,324.0,418.0,9.46,-2.55,-0.34,-60.75,-67.62,-9.81,0.69,-0.28,-0.1,-0.1,4.14,-1.38,0.52,0.0,1.0,3.0
4522,63.599826,t,511.0,511.0,296.0,76.0,308.0,219.0,316.0,414.0,9.45,-2.55,-0.44,-90.69,-34.13,8.0,0.68,-0.29,-0.1,-0.1,3.03,-4.64,-1.66,0.0,1.0,3.0
4523,63.61483,t,511.0,511.0,328.0,75.0,322.0,216.0,338.0,419.0,9.4,-2.73,-0.54,-60.56,-4.56,70.12,0.68,-0.3,-0.1,-0.1,1.97,-5.99,-2.34,0.0,1.0,3.0
4524,63.629833,t,511.0,511.0,344.0,74.0,323.0,220.0,348.0,407.0,9.35,-2.86,-0.57,-43.88,-7.81,86.5,0.68,-0.32,-0.09,-0.09,6.66,-4.42,1.43,0.0,1.0,3.0
4525,63.644837,t,509.0,511.0,359.0,72.0,325.0,200.0,350.0,393.0,9.3,-3.01,-0.62,-13.88,-24.0,77.94,0.68,-0.32,-0.09,-0.09,9.9,3.6,-0.11,0.0,1.0,3.0
4526,63.659868,t,490.0,511.0,360.0,70.0,325.0,180.0,347.0,382.0,9.23,-3.22,-0.69,-27.5,-1.06,37.31,0.68,-0.33,-0.09,-0.09,7.94,3.94,-1.21,0.0,1.0,3.0
4527,63.674872,t,488.0,495.0,319.0,73.0,306.0,194.0,318.0,390.0,9.2,-3.31,-0.69,-51.19,20.5,24.94,0.68,-0.34,-0.09,-0.09,8.02,3.75,-0.55,0.0,1.0,3.0
4528,63.689393,t,491.0,494.0,316.0,74.0,306.0,196.0,323.0,370.0,9.2,-3.32,-0.66,-39.56,31.69,10.06,0.68,-0.34,-0.1,-0.1,7.88,3.62,-0.56,0.0,1.0,3.0
4529,63.704465,t,473.0,508.0,312.0,75.0,319.0,200.0,331.0,352.0,9.21,-3.31,-0.6,3.19,40.81,-17.81,0.68,-0.34,-0.1,-0.1,5.23,0.84,-1.17,0.0,1.0,3.0
4530,63.719619,t,477.0,511.0,315.0,76.0,325.0,206.0,338.0,361.0,9.24,-3.19,-0.42,29.62,22.37,-31.56,0.68,-0.33,-0.1,-0.1,3.99,1.11,-2.08,0.0,1.0,3.0
4531,63.734644,t,488.0,511.0,326.0,76.0,346.0,230.0,352.0,400.0,9.28,-3.13,-0.38,36.06,14.69,-37.25,0.69,-0.33,-0.1,-0.1,3.11,1.77,-1.41,0.0,1.0,3.0
4532,63.749707,t,499.0,511.0,330.0,74.0,348.0,237.0,353.0,410.0,9.3,-3.07,-0.34,33.31,10.19,-43.88,0.69,-0.32,-0.1,-0.1,2.82,1.69,-1.18,0.0,1.0,3.0
4533,63.76471,t,511.0,511.0,330.0,72.0,353.0,238.0,352.0,424.0,9.33,-2.99,-0.31,29.75,11.06,-48.69,0.69,-0.31,-0.1,-0.1,2.06,0.9,-0.35,0.0,1.0,3.0
4534,63.779759,t,511.0,511.0,323.0,71.0,364.0,234.0,334.0,406.0,9.4,-2.76,-0.14,16.06,38.25,-45.75,0.69,-0.31,-0.11,-0.11,0.0,0.29,-0.91,0.0,1.0,3.0
4535,63.794787,t,510.0,511.0,316.0,70.0,368.0,234.0,334.0,402.0,9.42,-2.69,-0.07,11.13,41.63,-42.0,0.7,-0.3,-0.11,-0.11,-0.61,-0.01,-1.19,0.0,1.0,3.0
4536,63.809853,t,502.0,511.0,312.0,70.0,374.0,244.0,335.0,410.0,9.44,-2.63,0.0,8.38,40.25,-37.19,0.7,-0.3,-0.12,-0.12,-1.19,-0.29,-1.34,0.0,1.0,3.0
4537,63.824875,t,506.0,511.0,307.0,72.0,368.0,243.0,324.0,406.0,9.47,-2.54,0.11,6.56,31.12,-27.75,0.7,-0.29,-0.12,-0.12,-2.45,-0.34,-1.37,0.0,1.0,3.0
4538,63.839908,t,511.0,511.0,299.0,71.0,364.0,240.0,318.0,396.0,9.48,-2.49,0.16,5.5,26.31,-22.56,0.7,-0.29,-0.12,-0.12,-3.2,-0.77,-1.59,0.0,1.0,3.0
4539,63.854911,t,494.0,511.0,302.0,73.0,368.0,246.0,323.0,392.0,9.49,-2.42,0.24,4.44,23.75,-20.06,0.7,-0.29,-0.13,-0.13,-3.83,-1.0,-1.03,0.0,1.0,3.0
4540,63.868974,t,498.0,511.0,296.0,69.0,358.0,243.0,313.0,387.0,9.5,-2.4,0.28,5.37,24.56,-13.31,0.71,-0.29,-0.13,-0.13,-4.47,-0.92,-1.07,0.0,1.0,3.0
4541,63.885075,t,486.0,511.0,295.0,73.0,355.0,240.0,325.0,378.0,9.51,-2.36,0.37,8.81,25.56,-10.56,0.71,-0.28,-0.13,-0.13,-5.54,-0.48,-1.87,0.0,1.0,3.0
4542,63.899135,t,480.0,511.0,296.0,71.0,357.0,240.0,328.0,368.0,9.51,-2.32,0.44,8.75,15.44,-9.94,0.71,-0.28,-0.13,-0.13,-6.84,-0.1,-1.68,0.0,1.0,3.0
4543,63.914164,t,474.0,511.0,298.0,73.0,357.0,234.0,332.0,368.0,9.52,-2.3,0.45,2.25,3.69,-12.13,0.71,-0.28,-0.13,-0.13,-6.97,-0.27,-1.24,0.0,1.0,3.0
4544,63.929226,t,453.0,509.0,303.0,76.0,360.0,234.0,333.0,371.0,9.52,-2.28,0.44,-2.56,-6.19,-14.0,0.71,-0.28,-0.13,-0.13,-6.0,-0.53,-1.05,0.0,1.0,3.0
4545,63.944516,t,457.0,450.0,306.0,79.0,363.0,223.0,334.0,375.0,9.54,-2.23,0.38,-8.38,-20.5,-14.56,0.71,-0.28,-0.13,-0.13,-4.0,-1.05,-1.14,0.0,1.0,3.0
4546,63.959575,t,464.0,440.0,308.0,80.0,378.0,222.0,340.0,381.0,9.54,-2.21,0.33,-10.81,-23.94,-11.75,0.7,-0.28,-0.13,-0.13,-2.37,-3.0,-1.68,0.0,1.0,3.0
4547,63.974578,t,472.0,447.0,308.0,81.0,390.0,226.0,339.0,390.0,9.55,-2.18,0.26,-9.56,-19.0,-7.5,0.7,-0.28,-0.14,-0.14,-2.02,-3.87,-0.96,0.0,1.0,3.0
4548,63.989611,t,498.0,450.0,299.0,79.0,407.0,221.0,328.0,400.0,9.55,-2.18,0.23,-7.06,-10.63,-0.31,0.7,-0.28,-0.14,-0.14,-1.85,-4.54,-1.1,0.0,1.0,3.0
4549,64.004672,t,511.0,492.0,269.0,78.0,455.0,224.0,319.0,405.0,9.54,-2.24,0.25,3.5,10.81,23.31,0.7,-0.29,-0.13,-0.13,-2.07,-4.91,0.06,0.0,1.0,3.0
4550,64.019704,t,511.0,511.0,260.0,80.0,480.0,229.0,311.0,413.0,9.5,-2.38,0.34,-7.5,34.44,52.69,0.71,-0.29,-0.13,-0.13,-2.71,-5.35,-0.04,0.0,1.0,3.0
4551,64.034708,t,511.0,511.0,251.0,80.0,511.0,232.0,311.0,414.0,9.47,-2.5,0.41,-2.62,44.44,70.25,0.71,-0.29,-0.13,-0.13,-1.88,-5.01,-0.08,0.0,1.0,3.0
4552,64.049711,t,511.0,511.0,236.0,74.0,511.0,230.0,299.0,414.0,9.42,-2.64,0.51,-2.94,60.25,87.69,0.72,-0.3,-0.12,-0.12,-1.96,-4.4,-0.34,0.0,1.0,3.0
4553,64.064744,t,511.0,511.0,180.0,76.0,499.0,230.0,276.0,369.0,9.3,-3.0,0.74,-21.12,77.94,115.5,0.73,-0.32,-0.11,-0.11,1.93,-4.07,-0.34,0.0,1.0,3.0
4554,64.079778,t,499.0,511.0,157.0,78.0,493.0,232.0,268.0,351.0,9.22,-3.2,0.85,-40.5,81.5,132.69,0.73,-0.33,-0.11,-0.11,2.93,-3.64,0.63,0.0,1.0,3.0
4555,64.094837,t,482.0,495.0,134.0,78.0,462.0,230.0,260.0,336.0,9.04,-3.65,1.02,-51.31,63.19,140.06,0.74,-0.34,-0.11,-0.11,3.29,-3.28,0.64,0.0,1.0,3.0
4556,64.109869,t,423.0,446.0,125.0,80.0,431.0,224.0,250.0,319.0,8.94,-3.89,1.03,-62.63,31.81,148.0,0.74,-0.35,-0.1,-0.1,4.56,-2.3,1.47,0.0,1.0,3.0
4557,64.125924,t,390.0,412.0,119.0,80.0,402.0,211.0,242.0,285.0,8.72,-4.39,0.88,-87.19,-43.81,165.62,0.73,-0.39,-0.08,-0.08,7.78,-1.16,-0.15,0.0,1.0,3.0
4558,64.138983,t,326.0,338.0,118.0,80.0,351.0,186.0,217.0,265.0,8.46,-4.91,0.6,-83.37,-50.56,170.75,0.73,-0.4,-0.07,-0.07,9.25,-0.8,0.15,0.0,1.0,3.0
4559,64.155066,t,310.0,307.0,114.0,74.0,330.0,172.0,215.0,254.0,8.31,-5.17,0.47,-81.87,-40.88,173.87,0.72,-0.41,-0.06,-0.06,9.99,0.49,0.15,0.0,1.0,3.0
4560,64.169148,t,292.0,282.0,116.0,70.0,316.0,173.0,218.0,249.0,8.15,-5.42,0.38,-74.37,-18.87,172.37,0.72,-0.44,-0.05,-0.05,10.02,1.79,0.44,0.0,1.0,3.0
4561,64.18524,t,280.0,262.0,126.0,69.0,319.0,174.0,226.0,246.0,7.86,-5.85,0.27,-48.06,0.06,145.62,0.72,-0.45,-0.04,-0.04,6.42,4.38,-0.58,0.0,1.0,3.0
4562,64.199397,t,264.0,239.0,124.0,70.0,332.0,187.0,254.0,238.0,7.63,-6.15,0.17,-37.63,-7.75,95.69,0.71,-0.46,-0.03,-0.03,2.85,1.99,-2.42,0.0,1.0,3.0
4563,64.214499,t,280.0,235.0,116.0,70.0,334.0,187.0,260.0,246.0,7.55,-6.24,0.11,-24.81,-22.25,74.06,0.71,-0.48,-0.03,-0.03,1.76,1.4,-0.78,0.0,1.0,3.0
4564,64.229583,t,316.0,224.0,107.0,69.0,333.0,198.0,262.0,252.0,7.47,-6.34,0.06,-10.56,-30.69,54.19,0.71,-0.48,-0.02,-0.02,2.98,-0.17,0.39,0.0,1.0,3.0
4565,64.244616,t,344.0,232.0,110.0,68.0,330.0,208.0,268.0,264.0,7.38,-6.45,-0.01,15.0,-36.38,29.62,0.71,-0.48,-0.02,-0.02,2.67,0.08,1.22,0.0,1.0,3.0
4566,64.25963899999999,t,352.0,239.0,105.0,70.0,330.0,218.0,258.0,271.0,7.37,-6.46,-0.01,45.13,-36.5,9.63,0.71,-0.48,-0.02,-0.02,2.69,1.81,2.42,0.0,1.0,3.0
4567,64.274665,t,319.0,232.0,110.0,69.0,310.0,211.0,241.0,258.0,7.4,-6.42,0.12,108.25,-14.56,-25.75,0.72,-0.46,-0.01,-0.01,1.65,3.28,1.72,0.0,1.0,3.0
4568,64.289696,t,313.0,233.0,112.0,70.0,300.0,206.0,234.0,251.0,7.47,-6.33,0.34,118.44,-4.81,-38.19,0.72,-0.45,-0.0,-0.0,0.47,4.74,0.97,0.0,1.0,3.0
4569,64.304725,t,303.0,252.0,106.0,69.0,292.0,200.0,232.0,243.0,7.53,-6.26,0.47,119.12,1.0,-50.44,0.72,-0.44,-0.0,-0.0,-0.11,5.23,0.0,0.0,1.0,3.0
4570,64.319813,t,311.0,286.0,94.0,69.0,274.0,197.0,223.0,248.0,7.67,-6.06,0.71,98.75,7.0,-74.25,0.73,-0.42,-0.0,-0.0,-1.79,6.26,-0.64,0.0,1.0,3.0
4571,64.334845,t,326.0,296.0,100.0,69.0,263.0,190.0,219.0,246.0,7.76,-5.94,0.8,85.75,3.19,-83.37,0.74,-0.4,-0.0,-0.0,-2.65,6.69,0.68,0.0,1.0,3.0
4572,64.34988799999999,t,317.0,282.0,99.0,69.0,262.0,194.0,211.0,258.0,7.95,-5.66,0.89,46.06,-12.06,-101.12,0.74,-0.4,-0.01,-0.01,-2.41,6.09,1.34,0.0,1.0,3.0
4573,64.364903,t,319.0,259.0,102.0,68.0,250.0,174.0,203.0,249.0,8.06,-5.5,0.9,29.62,-16.19,-110.75,0.74,-0.39,-0.01,-0.01,-2.32,5.85,1.2,0.0,1.0,3.0
4574,64.378975,t,325.0,227.0,105.0,69.0,244.0,157.0,200.0,248.0,8.29,-5.16,0.86,-0.13,-21.31,-123.94,0.74,-0.38,-0.03,-0.03,-1.83,3.95,1.12,0.0,1.0,3.0
4575,64.39503,t,297.0,211.0,110.0,68.0,249.0,137.0,195.0,246.0,8.4,-4.98,0.8,-24.0,-31.5,-125.31,0.73,-0.37,-0.04,-0.04,-1.1,0.14,1.27,0.0,1.0,3.0
4576,64.409116,t,286.0,221.0,114.0,69.0,248.0,133.0,191.0,241.0,8.62,-4.62,0.67,-21.81,-30.75,-126.31,0.73,-0.36,-0.05,-0.05,-1.32,-0.71,1.57,0.0,1.0,3.0
4577,64.424205,t,278.0,230.0,105.0,69.0,247.0,123.0,194.0,235.0,8.72,-4.43,0.62,-15.69,-24.69,-125.31,0.73,-0.36,-0.06,-0.06,-1.84,-1.25,1.71,0.0,1.0,3.0
4578,64.439352,t,286.0,252.0,104.0,69.0,242.0,122.0,195.0,236.0,8.81,-4.25,0.59,-10.63,-18.75,-115.31,0.72,-0.34,-0.08,-0.08,-2.25,-1.83,0.7,0.0,1.0,3.0
4579,64.454843,t,323.0,285.0,106.0,70.0,241.0,148.0,203.0,245.0,8.97,-3.91,0.51,-13.13,-19.81,-110.31,0.72,-0.34,-0.09,-0.09,-2.08,-1.79,0.13,0.0,1.0,3.0
4580,64.469875,t,349.0,298.0,106.0,70.0,242.0,164.0,214.0,262.0,9.04,-3.75,0.48,-12.38,-17.44,-101.0,0.72,-0.33,-0.09,-0.09,-2.68,-2.06,-0.51,0.0,1.0,3.0
4581,64.48490699999999,t,370.0,316.0,104.0,70.0,246.0,170.0,223.0,280.0,9.15,-3.49,0.42,-7.12,-14.75,-77.31,0.72,-0.33,-0.1,-0.1,-3.69,-2.04,-1.11,0.0,1.0,3.0
4582,64.49991,t,421.0,344.0,96.0,73.0,264.0,194.0,247.0,323.0,9.22,-3.3,0.37,-10.44,-11.25,-55.13,0.71,-0.33,-0.1,-0.1,-4.76,-2.0,-1.9,0.0,1.0,3.0
4583,64.514932,t,429.0,349.0,100.0,74.0,270.0,202.0,262.0,332.0,9.25,-3.23,0.35,-12.69,-8.75,-45.81,0.71,-0.32,-0.11,-0.11,-4.96,-1.87,-2.05,0.0,1.0,3.0
4584,64.528973,t,438.0,354.0,98.0,74.0,270.0,206.0,265.0,342.0,9.27,-3.17,0.33,-11.63,-7.56,-38.5,0.71,-0.32,-0.11,-0.11,-5.22,-1.86,-1.89,0.0,1.0,3.0
4585,64.545006,t,450.0,369.0,99.0,73.0,267.0,202.0,266.0,340.0,9.32,-3.01,0.25,11.63,-21.81,-34.0,0.71,-0.32,-0.12,-0.12,-3.91,-1.26,-0.74,0.0,1.0,3.0
4586,64.559064,t,456.0,387.0,113.0,71.0,268.0,203.0,276.0,345.0,9.34,-2.95,0.22,21.0,-27.62,-33.81,0.71,-0.32,-0.12,-0.12,-3.72,-0.81,-0.44,0.0,1.0,3.0
4587,64.575124,t,458.0,397.0,112.0,73.0,272.0,205.0,282.0,345.0,9.36,-2.9,0.18,23.94,-33.13,-31.69,0.7,-0.31,-0.12,-0.12,-3.5,-0.31,0.04,0.0,1.0,3.0
4588,64.589211,t,476.0,418.0,135.0,76.0,286.0,203.0,302.0,375.0,9.37,-2.86,0.12,29.62,-42.06,-25.25,0.7,-0.31,-0.11,-0.11,-2.57,0.28,-0.13,0.0,1.0,3.0
4589,64.604345,t,511.0,510.0,240.0,80.0,313.0,213.0,330.0,432.0,9.39,-2.78,-0.27,53.38,-135.0,-17.31,0.69,-0.3,-0.1,-0.1,12.81,-3.72,-4.06,0.0,1.0,3.0
4590,64.619432,t,511.0,511.0,268.0,79.0,326.0,211.0,338.0,442.0,9.4,-2.75,-0.43,90.5,-123.69,-25.62,0.68,-0.3,-0.1,-0.1,8.23,-6.33,-2.19,0.0,1.0,3.0
4591,64.634551,t,511.0,511.0,281.0,79.0,333.0,215.0,330.0,449.0,9.4,-2.73,-0.53,56.5,-77.87,-14.19,0.68,-0.29,-0.09,-0.09,1.73,-2.09,9.5,0.0,1.0,3.0
4592,64.649653,t,511.0,511.0,276.0,76.0,333.0,218.0,327.0,424.0,9.38,-2.77,-0.6,5.06,-50.63,28.62,0.68,-0.3,-0.08,-0.08,5.49,1.15,-4.56,0.0,1.0,3.0
4593,64.664722,t,511.0,511.0,297.0,75.0,346.0,215.0,353.0,434.0,9.29,-3.04,-0.68,-77.5,43.0,110.87,0.68,-0.32,-0.08,-0.08,5.99,-1.92,-0.38,0.0,1.0,3.0
4594,64.679789,t,511.0,511.0,296.0,74.0,354.0,218.0,349.0,429.0,9.18,-3.37,-0.64,-52.75,25.0,107.62,0.68,-0.33,-0.08,-0.08,7.01,-5.42,0.61,0.0,1.0,3.0
4595,64.694851,t,511.0,511.0,301.0,77.0,357.0,211.0,345.0,410.0,9.13,-3.51,-0.65,-53.69,16.19,90.12,0.68,-0.34,-0.08,-0.08,7.23,-3.59,-0.14,0.0,1.0,3.0
4596,64.709883,t,506.0,511.0,272.0,80.0,340.0,210.0,354.0,362.0,9.04,-3.74,-0.52,-11.63,63.06,74.69,0.69,-0.35,-0.07,-0.07,5.66,6.49,-1.82,0.0,1.0,3.0
4597,64.725912,t,463.0,511.0,255.0,81.0,331.0,206.0,333.0,346.0,8.98,-3.91,-0.36,-23.75,53.13,42.81,0.69,-0.36,-0.07,-0.07,4.15,5.36,-2.87,0.0,1.0,3.0
4598,64.738915,t,465.0,511.0,255.0,80.0,328.0,208.0,330.0,341.0,8.97,-3.93,-0.32,-23.5,32.81,13.81,0.69,-0.36,-0.07,-0.07,4.42,2.55,-1.8,0.0,1.0,3.0
4599,64.754976,t,469.0,511.0,260.0,78.0,329.0,216.0,327.0,349.0,8.98,-3.92,-0.33,-21.62,5.69,-7.56,0.69,-0.36,-0.08,-0.08,5.02,1.35,-1.65,0.0,1.0,3.0
4600,64.769064,t,483.0,511.0,263.0,78.0,330.0,224.0,334.0,373.0,8.99,-3.88,-0.36,-23.81,-11.13,-19.62,0.69,-0.36,-0.08,-0.08,5.26,0.33,-1.64,0.0,1.0,3.0
4601,64.785103,t,485.0,511.0,263.0,80.0,342.0,232.0,319.0,390.0,9.03,-3.79,-0.41,-17.25,-2.0,-32.0,0.69,-0.36,-0.09,-0.09,2.15,-0.19,-1.03,0.0,1.0,3.0
4602,64.799175,t,507.0,511.0,270.0,79.0,348.0,234.0,310.0,391.0,9.08,-3.67,-0.42,-5.56,0.75,-38.63,0.69,-0.36,-0.09,-0.09,1.91,0.29,-0.47,0.0,1.0,3.0
4603,64.814237,t,498.0,511.0,269.0,78.0,347.0,229.0,318.0,386.0,9.1,-3.61,-0.41,-2.25,5.81,-42.63,0.69,-0.35,-0.1,-0.1,1.44,-0.02,0.41,0.0,1.0,3.0
4604,64.829312,t,488.0,511.0,276.0,74.0,363.0,232.0,334.0,380.0,9.16,-3.47,-0.36,3.12,15.38,-42.25,0.69,-0.35,-0.1,-0.1,0.78,-0.9,0.02,0.0,1.0,3.0
4605,64.844416,t,478.0,478.0,276.0,74.0,371.0,231.0,338.0,369.0,9.18,-3.41,-0.33,6.12,17.81,-39.75,0.69,-0.35,-0.1,-0.1,0.03,-1.31,0.0,0.0,1.0,3.0
4606,64.859514,t,470.0,480.0,273.0,74.0,374.0,230.0,338.0,374.0,9.21,-3.3,-0.25,9.31,24.31,-34.06,0.69,-0.34,-0.11,-0.11,-0.61,-1.29,-0.1,0.0,1.0,3.0
4607,64.874591,t,474.0,469.0,259.0,77.0,394.0,235.0,330.0,396.0,9.26,-3.21,-0.15,7.25,29.12,-26.44,0.69,-0.34,-0.11,-0.11,-1.8,-1.57,-0.4,0.0,1.0,3.0
4608,64.889687,t,478.0,498.0,248.0,78.0,404.0,236.0,325.0,394.0,9.27,-3.17,-0.1,7.94,30.56,-21.69,0.69,-0.34,-0.11,-0.11,-2.92,-1.79,0.02,0.0,1.0,3.0
4609,64.90469,t,489.0,500.0,245.0,78.0,408.0,243.0,319.0,390.0,9.28,-3.15,-0.04,11.81,32.44,-15.13,0.7,-0.33,-0.11,-0.11,-3.3,-1.63,0.0,0.0,1.0,3.0
4610,64.91972200000001,t,493.0,511.0,245.0,79.0,399.0,235.0,304.0,373.0,9.29,-3.13,0.02,17.06,36.31,-8.13,0.7,-0.33,-0.12,-0.12,-4.71,0.38,0.05,0.0,1.0,3.0
4611,64.934724,t,466.0,511.0,244.0,78.0,391.0,234.0,302.0,354.0,9.28,-3.15,0.27,22.44,47.88,7.06,0.71,-0.33,-0.12,-0.12,-5.1,1.06,0.11,0.0,1.0,3.0
4612,64.949786,t,456.0,511.0,242.0,79.0,393.0,234.0,304.0,345.0,9.27,-3.16,0.36,17.06,50.56,8.06,0.71,-0.33,-0.12,-0.12,-5.18,1.44,-0.47,0.0,1.0,3.0
4613,64.964819,t,447.0,511.0,238.0,79.0,398.0,235.0,303.0,338.0,9.26,-3.17,0.45,12.13,52.06,7.62,0.72,-0.33,-0.12,-0.12,-5.71,1.39,-1.81,0.0,1.0,3.0
4614,64.979852,t,446.0,511.0,233.0,78.0,402.0,234.0,305.0,338.0,9.25,-3.18,0.6,-7.0,45.0,0.31,0.72,-0.33,-0.12,-0.12,-5.78,0.4,-1.95,0.0,1.0,3.0
4615,64.994885,t,449.0,511.0,232.0,79.0,420.0,236.0,293.0,345.0,9.25,-3.17,0.66,-29.06,22.56,-4.37,0.72,-0.33,-0.12,-0.12,-4.4,-0.93,-1.47,0.0,1.0,3.0
4616,65.009027,t,447.0,511.0,219.0,79.0,426.0,237.0,280.0,349.0,9.25,-3.17,0.66,-37.69,13.25,-3.62,0.72,-0.33,-0.13,-0.13,-3.8,-1.28,-1.54,0.0,1.0,3.0
4617,65.026143,t,458.0,501.0,207.0,80.0,432.0,233.0,282.0,346.0,9.24,-3.19,0.63,-49.0,6.12,5.12,0.72,-0.33,-0.13,-0.13,-2.79,-2.81,-2.09,0.0,1.0,3.0
4618,65.039172,t,478.0,488.0,190.0,81.0,445.0,231.0,283.0,356.0,9.24,-3.22,0.61,-54.38,6.62,12.69,0.72,-0.34,-0.13,-0.13,-2.42,-4.63,-1.35,0.0,1.0,3.0
4619,65.054286,t,496.0,475.0,173.0,80.0,458.0,232.0,278.0,376.0,9.22,-3.26,0.59,-57.25,7.31,23.5,0.72,-0.34,-0.14,-0.14,-1.07,-6.11,-1.75,0.0,1.0,3.0
4620,65.069474,t,499.0,465.0,148.0,74.0,486.0,220.0,261.0,369.0,9.16,-3.43,0.58,-50.38,19.31,59.56,0.72,-0.36,-0.13,-0.13,-0.87,-5.95,-1.34,0.0,1.0,3.0
4621,65.08461199999999,t,495.0,453.0,136.0,74.0,485.0,217.0,248.0,349.0,9.11,-3.56,0.6,-42.69,38.38,101.5,0.72,-0.37,-0.13,-0.13,0.22,-5.67,-0.94,0.0,1.0,3.0
4622,65.099688,t,479.0,447.0,126.0,74.0,485.0,218.0,240.0,336.0,8.96,-3.91,0.67,-40.88,41.44,121.37,0.72,-0.38,-0.13,-0.13,1.33,-5.74,-0.33,0.0,1.0,3.0
4623,65.114721,t,458.0,426.0,118.0,75.0,471.0,224.0,231.0,324.0,8.86,-4.14,0.7,-40.31,40.5,141.37,0.72,-0.39,-0.12,-0.12,3.71,-6.31,0.16,0.0,1.0,3.0
4624,65.129791,t,407.0,402.0,114.0,79.0,422.0,224.0,226.0,296.0,8.73,-4.38,0.72,-37.06,33.19,161.31,0.73,-0.41,-0.11,-0.11,7.63,-4.63,1.82,0.0,1.0,3.0
4625,65.144864,t,353.0,316.0,95.0,79.0,376.0,205.0,225.0,264.0,8.25,-5.24,0.68,-18.81,-9.06,206.69,0.73,-0.43,-0.08,-0.08,8.44,-1.56,0.64,0.0,1.0,3.0
4626,65.159927,t,326.0,295.0,96.0,78.0,354.0,199.0,226.0,258.0,8.05,-5.55,0.64,-21.69,-13.63,214.87,0.73,-0.44,-0.07,-0.07,8.7,-0.37,-0.82,0.0,1.0,3.0
4627,65.17493,t,314.0,293.0,101.0,74.0,344.0,198.0,233.0,263.0,7.84,-5.84,0.59,-30.37,-17.62,214.44,0.73,-0.45,-0.06,-0.06,8.77,1.58,-1.46,0.0,1.0,3.0
4628,65.189964,t,314.0,284.0,116.0,69.0,342.0,190.0,247.0,258.0,7.64,-6.12,0.54,-24.56,-17.25,165.87,0.72,-0.48,-0.02,-0.02,4.45,6.41,0.33,0.0,1.0,3.0
4629,65.204998,t,304.0,266.0,124.0,68.0,334.0,201.0,258.0,252.0,7.1,-6.75,0.34,-46.5,-20.81,135.31,0.72,-0.49,-0.02,-0.02,2.99,5.76,-0.19,0.0,1.0,3.0
4630,65.219089,t,302.0,250.0,119.0,69.0,336.0,202.0,265.0,256.0,6.98,-6.88,0.25,-47.56,-26.62,103.19,0.72,-0.5,-0.01,-0.01,1.35,3.2,-0.66,0.0,1.0,3.0
4631,65.234208,t,318.0,241.0,111.0,68.0,340.0,200.0,265.0,259.0,6.89,-6.97,0.16,-41.19,-30.62,73.87,0.71,-0.51,-0.01,-0.01,0.72,1.27,-0.57,0.0,1.0,3.0
4632,65.249334,t,340.0,223.0,114.0,69.0,343.0,215.0,262.0,274.0,6.81,-7.04,0.01,-17.19,-40.88,18.87,0.71,-0.51,-0.0,-0.0,0.59,0.47,-0.08,0.0,1.0,3.0
4633,65.26448,t,326.0,213.0,109.0,70.0,332.0,222.0,252.0,278.0,6.84,-7.02,-0.05,28.81,-48.06,-17.0,0.71,-0.51,-0.0,-0.0,1.9,0.83,1.3,0.0,1.0,3.0
4634,65.279762,t,311.0,211.0,109.0,69.0,322.0,214.0,236.0,264.0,6.87,-6.99,-0.03,52.06,-42.5,-27.44,0.71,-0.5,0.0,0.0,2.22,1.92,1.4,0.0,1.0,3.0
4635,65.294824,t,306.0,232.0,110.0,70.0,310.0,210.0,235.0,267.0,6.92,-6.94,0.0,70.69,-22.0,-50.5,0.71,-0.49,0.0,0.0,2.64,3.6,1.12,0.0,1.0,3.0
4636,65.309856,t,297.0,234.0,107.0,68.0,294.0,199.0,230.0,258.0,7.05,-6.8,0.13,76.44,-12.19,-63.88,0.71,-0.49,0.0,0.0,2.14,4.18,1.84,0.0,1.0,3.0
4637,65.324899,t,315.0,233.0,107.0,70.0,288.0,198.0,231.0,260.0,7.23,-6.61,0.29,79.19,-9.25,-82.56,0.72,-0.47,0.0,0.0,0.52,4.44,2.06,0.0,1.0,3.0
4638,65.338969,t,319.0,246.0,110.0,71.0,285.0,198.0,226.0,258.0,7.34,-6.49,0.36,70.62,-11.0,-90.87,0.72,-0.45,-0.0,-0.0,-0.68,4.55,1.65,0.0,1.0,3.0
4639,65.355053,t,326.0,233.0,109.0,70.0,276.0,191.0,220.0,259.0,7.45,-6.36,0.41,62.31,-12.13,-99.94,0.72,-0.44,-0.01,-0.01,-1.61,4.56,1.42,0.0,1.0,3.0
4640,65.369082,t,330.0,197.0,106.0,68.0,260.0,171.0,203.0,250.0,7.83,-5.87,0.51,43.13,-17.06,-128.06,0.73,-0.43,-0.02,-0.02,-1.57,3.24,1.47,0.0,1.0,3.0
4641,65.384204,t,319.0,200.0,108.0,68.0,258.0,165.0,201.0,247.0,7.96,-5.69,0.52,37.69,-20.19,-136.81,0.73,-0.42,-0.02,-0.02,-1.33,2.54,1.31,0.0,1.0,3.0
4642,65.399684,t,319.0,205.0,108.0,68.0,257.0,149.0,201.0,239.0,8.1,-5.48,0.52,36.94,-23.69,-142.94,0.73,-0.41,-0.03,-0.03,-1.15,1.88,1.32,0.0,1.0,3.0
4643,65.414729,t,319.0,208.0,108.0,69.0,254.0,143.0,197.0,237.0,8.24,-5.28,0.52,40.94,-27.56,-143.44,0.72,-0.38,-0.05,-0.05,-0.29,0.18,1.3,0.0,1.0,3.0
4644,65.429774,t,319.0,224.0,107.0,68.0,249.0,141.0,196.0,238.0,8.61,-4.66,0.52,40.31,-21.62,-135.62,0.72,-0.37,-0.05,-0.05,-0.93,0.0,1.47,0.0,1.0,3.0
4645,65.444804,t,319.0,240.0,105.0,69.0,246.0,143.0,197.0,241.0,8.71,-4.46,0.52,31.81,-16.81,-127.94,0.72,-0.36,-0.06,-0.06,-1.52,-0.33,1.16,0.0,1.0,3.0
4646,65.45912799999999,t,332.0,261.0,104.0,68.0,247.0,146.0,201.0,246.0,8.8,-4.28,0.51,21.19,-13.56,-118.19,0.72,-0.36,-0.07,-0.07,-1.75,-0.4,1.02,0.0,1.0,3.0
4647,65.474213,t,341.0,279.0,100.0,68.0,245.0,151.0,204.0,248.0,8.88,-3.96,0.5,7.0,-7.44,-100.94,0.72,-0.34,-0.08,-0.08,-2.3,-0.85,0.42,0.0,1.0,3.0
4648,65.489243,t,370.0,313.0,98.0,69.0,248.0,166.0,222.0,272.0,9.07,-3.69,0.49,5.25,-5.37,-83.44,0.72,-0.34,-0.09,-0.09,-3.63,-0.79,-0.23,0.0,1.0,3.0
4649,65.504312,t,390.0,323.0,102.0,69.0,248.0,169.0,231.0,275.0,9.11,-3.57,0.48,6.06,-5.94,-74.87,0.72,-0.33,-0.09,-0.09,-4.05,-0.48,-0.27,0.0,1.0,3.0
4650,65.519386,t,393.0,335.0,107.0,69.0,251.0,176.0,243.0,293.0,9.16,-3.46,0.47,5.0,-8.75,-66.81,0.72,-0.33,-0.1,-0.1,-4.2,-0.18,-0.24,0.0,1.0,3.0
4651,65.534503,t,399.0,346.0,110.0,70.0,252.0,179.0,249.0,301.0,9.19,-3.36,0.45,2.94,-13.31,-61.69,0.72,-0.32,-0.1,-0.1,-3.99,-0.27,-0.22,0.0,1.0,3.0
4652,65.54963,t,397.0,375.0,111.0,74.0,248.0,182.0,256.0,307.0,9.26,-3.18,0.37,4.62,-38.44,-54.38,0.71,-0.32,-0.11,-0.11,-2.32,-0.03,0.21,0.0,1.0,3.0
4653,65.564659,t,405.0,386.0,113.0,76.0,244.0,176.0,262.0,315.0,9.32,-3.01,0.25,8.63,-40.5,-51.69,0.71,-0.31,-0.11,-0.11,-2.2,0.25,1.37,0.0,1.0,3.0
4654,65.579732,t,424.0,393.0,137.0,76.0,254.0,182.0,271.0,339.0,9.35,-2.93,0.19,12.25,-44.0,-48.13,0.71,-0.31,-0.11,-0.11,-1.43,0.6,1.3,0.0,1.0,3.0
4655,65.594765,t,458.0,509.0,203.0,80.0,293.0,211.0,329.0,400.0,9.39,-2.8,-0.02,-12.69,-74.81,-39.44,0.69,-0.3,-0.11,-0.11,4.98,-1.65,-3.47,0.0,1.0,3.0
4656,65.609797,t,511.0,511.0,234.0,80.0,306.0,210.0,335.0,426.0,9.41,-2.73,-0.16,13.56,-92.44,-41.38,0.69,-0.3,-0.11,-0.11,7.59,-2.04,-1.22,0.0,1.0,3.0
4657,65.625831,t,511.0,511.0,250.0,79.0,330.0,222.0,332.0,440.0,9.43,-2.66,-0.28,16.25,-50.38,-38.38,0.69,-0.3,-0.11,-0.11,4.07,-6.17,-1.89,0.0,1.0,3.0
4658,65.639864,t,511.0,511.0,255.0,77.0,344.0,229.0,327.0,442.0,9.44,-2.59,-0.38,-25.12,-5.06,-4.94,0.68,-0.3,-0.11,-0.11,-0.07,-2.34,-2.61,0.0,1.0,3.0
4659,65.654925,t,511.0,511.0,292.0,79.0,341.0,230.0,339.0,426.0,9.38,-2.81,-0.33,4.69,25.06,84.62,0.69,-0.31,-0.1,-0.1,-0.17,2.94,-0.35,0.0,1.0,3.0
4660,65.668953,t,511.0,511.0,319.0,76.0,344.0,230.0,358.0,414.0,9.34,-2.95,-0.3,2.62,21.62,91.0,0.69,-0.31,-0.1,-0.1,1.46,4.54,-0.93,0.0,1.0,3.0
4661,65.68504300000001,t,511.0,511.0,353.0,76.0,360.0,232.0,374.0,421.0,9.3,-3.08,-0.29,6.94,0.75,76.37,0.69,-0.32,-0.09,-0.09,8.15,-0.25,-2.06,0.0,1.0,3.0
4662,65.699123,t,511.0,511.0,359.0,76.0,388.0,231.0,353.0,462.0,9.24,-3.23,-0.43,-36.69,-13.25,21.0,0.69,-0.33,-0.09,-0.09,8.04,-1.89,-1.48,0.0,1.0,3.0
4663,65.714261,t,511.0,511.0,327.0,74.0,393.0,231.0,346.0,468.0,9.23,-3.27,-0.46,-44.06,-7.62,29.37,0.68,-0.33,-0.09,-0.09,7.84,-0.57,-1.01,0.0,1.0,3.0
4664,65.729354,t,511.0,511.0,319.0,74.0,390.0,231.0,342.0,465.0,9.21,-3.32,-0.48,-36.31,1.0,33.5,0.68,-0.33,-0.09,-0.09,7.21,0.33,-0.28,0.0,1.0,3.0
4665,65.744476,t,511.0,511.0,325.0,75.0,394.0,230.0,346.0,435.0,9.19,-3.37,-0.47,-22.5,16.56,29.62,0.69,-0.34,-0.09,-0.09,4.52,1.91,0.0,0.0,1.0,3.0
4666,65.759567,t,511.0,511.0,340.0,72.0,379.0,230.0,361.0,402.0,9.16,-3.48,-0.32,19.69,28.94,16.62,0.69,-0.34,-0.09,-0.09,2.87,4.52,-0.87,0.0,1.0,3.0
4667,65.774668,t,511.0,511.0,346.0,72.0,373.0,230.0,366.0,383.0,9.16,-3.48,-0.28,16.5,23.5,1.62,0.69,-0.34,-0.09,-0.09,2.79,4.27,-1.02,0.0,1.0,3.0
4668,65.789698,t,511.0,511.0,349.0,71.0,369.0,231.0,370.0,382.0,9.17,-3.46,-0.25,4.0,14.44,-14.63,0.69,-0.34,-0.09,-0.09,3.19,3.09,-0.94,0.0,1.0,3.0
4669,65.804701,t,511.0,511.0,338.0,71.0,370.0,233.0,358.0,413.0,9.2,-3.36,-0.25,-24.31,7.12,-33.19,0.69,-0.33,-0.1,-0.1,1.4,1.12,-0.97,0.0,1.0,3.0
4670,65.819705,t,511.0,511.0,330.0,73.0,374.0,236.0,354.0,414.0,9.22,-3.3,-0.26,-36.69,5.81,-39.38,0.69,-0.33,-0.1,-0.1,0.82,0.66,-1.32,0.0,1.0,3.0
4671,65.834708,t,511.0,511.0,325.0,73.0,382.0,233.0,355.0,422.0,9.27,-3.17,-0.27,-28.56,6.37,-41.38,0.69,-0.33,-0.11,-0.11,0.19,0.25,-1.32,0.0,1.0,3.0
4672,65.849712,t,511.0,491.0,334.0,73.0,382.0,231.0,357.0,423.0,9.29,-3.1,-0.27,-15.25,7.37,-42.94,0.69,-0.33,-0.11,-0.11,-0.34,-0.01,-0.86,0.0,1.0,3.0
4673,65.864715,t,507.0,485.0,338.0,74.0,390.0,239.0,374.0,435.0,9.34,-2.96,-0.23,12.13,11.0,-44.38,0.69,-0.33,-0.12,-0.12,-1.27,-0.39,-0.76,0.0,1.0,3.0
4674,65.879748,t,504.0,502.0,339.0,74.0,391.0,242.0,378.0,434.0,9.36,-2.89,-0.2,20.44,12.94,-44.81,0.69,-0.32,-0.12,-0.12,-1.52,-0.62,-0.65,0.0,1.0,3.0
4675,65.894777,t,511.0,511.0,346.0,74.0,397.0,248.0,377.0,435.0,9.41,-2.75,-0.12,28.56,19.75,-41.94,0.69,-0.31,-0.12,-0.12,-2.1,-1.04,-0.55,0.0,1.0,3.0
4676,65.909781,t,511.0,511.0,350.0,74.0,402.0,246.0,356.0,429.0,9.44,-2.63,-0.02,27.44,21.94,-35.25,0.7,-0.31,-0.12,-0.12,-3.13,-0.92,-0.02,0.0,1.0,3.0
4677,65.924784,t,511.0,511.0,352.0,75.0,410.0,249.0,360.0,431.0,9.45,-2.58,0.02,24.31,23.87,-32.0,0.7,-0.3,-0.12,-0.12,-3.98,-0.88,-0.4,0.0,1.0,3.0
4678,65.939788,t,511.0,511.0,352.0,75.0,416.0,250.0,351.0,437.0,9.47,-2.53,0.07,21.37,27.19,-28.69,0.7,-0.3,-0.13,-0.13,-5.06,-1.24,-0.3,0.0,1.0,3.0
4679,65.954791,t,511.0,511.0,348.0,74.0,426.0,250.0,347.0,440.0,9.49,-2.46,0.17,8.88,24.87,-21.5,0.7,-0.29,-0.13,-0.13,-5.13,-1.8,-0.18,0.0,1.0,3.0
4680,65.96979,t,511.0,511.0,341.0,75.0,434.0,248.0,346.0,440.0,9.49,-2.43,0.21,-3.06,22.19,-17.12,0.7,-0.29,-0.13,-0.13,-4.52,-4.3,0.23,0.0,1.0,3.0
4681,65.9848,t,511.0,511.0,326.0,78.0,478.0,245.0,356.0,460.0,9.5,-2.41,0.23,-24.94,10.69,-3.62,0.7,-0.3,-0.14,-0.14,-3.92,-4.55,0.09,0.0,1.0,3.0
4682,65.999831,t,511.0,511.0,314.0,78.0,459.0,235.0,342.0,446.0,9.5,-2.42,0.23,-29.06,6.56,5.5,0.7,-0.3,-0.14,-0.14,-2.19,-2.24,-0.34,0.0,1.0,3.0
4683,66.014887,t,511.0,511.0,312.0,79.0,450.0,234.0,340.0,446.0,9.48,-2.48,0.25,-41.13,20.75,23.37,0.7,-0.3,-0.14,-0.14,-2.03,-1.78,-1.06,0.0,1.0,3.0
4684,66.029928,t,511.0,511.0,306.0,79.0,440.0,234.0,328.0,427.0,9.46,-2.54,0.29,-40.31,33.31,31.69,0.7,-0.31,-0.14,-0.14,-2.07,-1.48,-1.59,0.0,1.0,3.0
4685,66.044923,t,511.0,511.0,273.0,78.0,436.0,242.0,315.0,375.0,9.42,-2.67,0.42,-37.5,56.19,40.69,0.71,-0.32,-0.14,-0.14,-3.3,-2.32,-1.82,0.0,1.0,3.0
4686,66.058981,t,507.0,511.0,267.0,78.0,434.0,242.0,317.0,362.0,9.4,-2.74,0.5,-38.25,61.88,44.13,0.71,-0.32,-0.14,-0.14,-3.33,-2.47,-2.7,0.0,1.0,3.0
4687,66.074987,t,496.0,511.0,254.0,78.0,436.0,239.0,317.0,351.0,9.33,-2.91,0.66,-33.94,57.94,52.88,0.72,-0.33,-0.14,-0.14,-3.93,-2.45,-1.55,0.0,1.0,3.0
4688,66.089191,t,476.0,511.0,215.0,79.0,469.0,238.0,301.0,358.0,9.26,-3.11,0.74,-44.13,33.13,59.88,0.72,-0.34,-0.14,-0.14,-2.17,-2.29,-2.36,0.0,1.0,3.0
4689,66.10425000000001,t,488.0,511.0,186.0,78.0,474.0,239.0,297.0,358.0,9.23,-3.22,0.76,-49.5,27.44,62.0,0.72,-0.35,-0.14,-0.14,-1.15,-2.77,-2.98,0.0,1.0,3.0
4690,66.119431,t,511.0,511.0,160.0,77.0,466.0,238.0,285.0,352.0,9.14,-3.45,0.72,-65.37,2.44,73.0,0.72,-0.36,-0.14,-0.14,2.3,-4.67,-0.66,0.0,1.0,3.0
4691,66.134488,t,511.0,459.0,138.0,76.0,472.0,226.0,272.0,352.0,9.09,-3.59,0.68,-63.63,-2.5,82.5,0.72,-0.36,-0.14,-0.14,3.8,-5.14,0.05,0.0,1.0,3.0
4692,66.14961,t,450.0,370.0,118.0,78.0,460.0,210.0,250.0,336.0,8.96,-3.91,0.62,-37.5,0.37,106.69,0.72,-0.38,-0.13,-0.13,6.6,-4.51,0.89,0.0,1.0,3.0
4693,66.164684,t,401.0,346.0,121.0,82.0,436.0,198.0,243.0,318.0,8.88,-4.1,0.61,-27.69,7.87,119.12,0.72,-0.39,-0.12,-0.12,6.43,-3.56,1.04,0.0,1.0,3.0
4694,66.179747,t,369.0,332.0,116.0,80.0,415.0,195.0,239.0,287.0,8.79,-4.3,0.62,-20.62,17.56,129.0,0.72,-0.4,-0.11,-0.11,5.18,-1.41,-0.07,0.0,1.0,3.0
4695,66.19475,t,342.0,306.0,108.0,80.0,370.0,196.0,231.0,264.0,8.56,-4.72,0.65,-16.5,15.69,143.0,0.72,-0.41,-0.1,-0.1,6.05,-1.87,-0.41,0.0,1.0,3.0
4696,66.209795,t,308.0,261.0,98.0,79.0,332.0,202.0,237.0,247.0,8.31,-5.15,0.66,-1.87,4.5,146.75,0.73,-0.42,-0.08,-0.08,9.02,-4.2,-1.15,0.0,1.0,3.0
4697,66.224833,t,299.0,251.0,101.0,78.0,313.0,204.0,242.0,249.0,8.18,-5.35,0.67,17.44,1.62,147.56,0.73,-0.43,-0.07,-0.07,10.4,-2.74,-1.08,0.0,1.0,3.0
4698,66.239862,t,301.0,260.0,104.0,77.0,313.0,205.0,248.0,250.0,8.05,-5.55,0.73,60.5,7.62,135.06,0.73,-0.43,-0.05,-0.05,8.23,4.03,-0.68,0.0,1.0,3.0
4699,66.254865,t,303.0,258.0,110.0,73.0,318.0,211.0,257.0,251.0,7.91,-5.73,0.79,36.5,-23.44,95.06,0.74,-0.44,-0.03,-0.03,3.11,4.2,-0.54,0.0,1.0,3.0
4700,66.269897,t,328.0,290.0,109.0,69.0,319.0,215.0,262.0,260.0,7.63,-6.09,0.83,37.06,-36.06,65.5,0.74,-0.44,-0.02,-0.02,3.11,3.87,-0.09,0.0,1.0,3.0
4701,66.284957,t,345.0,309.0,112.0,69.0,332.0,220.0,265.0,264.0,7.6,-6.13,0.82,37.38,-38.25,41.13,0.74,-0.44,-0.02,-0.02,2.63,3.76,0.3,0.0,1.0,3.0
4702,66.299005,t,362.0,316.0,117.0,69.0,338.0,225.0,259.0,267.0,7.57,-6.16,0.81,35.75,-37.63,26.31,0.74,-0.43,-0.01,-0.01,2.23,3.38,0.27,0.0,1.0,3.0
4703,66.315102,t,362.0,316.0,116.0,69.0,358.0,236.0,266.0,284.0,7.55,-6.19,0.83,51.94,-28.62,12.63,0.74,-0.43,-0.0,-0.0,0.88,1.75,0.32,0.0,1.0,3.0
4704,66.329346,t,358.0,312.0,118.0,70.0,356.0,236.0,268.0,288.0,7.55,-6.18,0.9,64.5,-20.87,-1.69,0.74,-0.42,0.0,0.0,-0.61,2.24,0.11,0.0,1.0,3.0
4705,66.344439,t,355.0,296.0,117.0,69.0,336.0,223.0,251.0,280.0,7.57,-6.15,0.95,65.81,-21.5,-12.69,0.74,-0.42,0.01,0.01,-1.21,2.82,-0.05,0.0,1.0,3.0
4706,66.359555,t,326.0,273.0,122.0,69.0,314.0,211.0,240.0,259.0,7.63,-6.06,1.03,68.69,-24.81,-31.75,0.74,-0.41,0.01,0.01,-2.05,4.26,-0.16,0.0,1.0,3.0
4707,66.374846,t,306.0,269.0,123.0,75.0,297.0,206.0,241.0,253.0,7.68,-5.99,1.06,70.25,-26.44,-41.44,0.75,-0.4,0.01,0.01,-2.22,6.02,-0.07,0.0,1.0,3.0
4708,66.389894,t,300.0,265.0,121.0,76.0,290.0,198.0,227.0,253.0,7.8,-5.82,1.12,58.63,-26.19,-60.0,0.75,-0.39,0.01,0.01,-2.27,5.97,-0.51,0.0,1.0,3.0
4709,66.404933,t,295.0,272.0,114.0,74.0,282.0,187.0,224.0,247.0,7.88,-5.72,1.13,45.75,-27.19,-68.62,0.75,-0.38,0.01,0.01,-2.55,6.08,-0.59,0.0,1.0,3.0
4710,66.419986,t,301.0,276.0,105.0,70.0,273.0,185.0,222.0,249.0,7.96,-5.6,1.12,26.31,-30.56,-79.31,0.75,-0.38,0.01,0.01,-2.76,5.87,0.22,0.0,1.0,3.0
4711,66.434055,t,303.0,275.0,104.0,69.0,263.0,184.0,214.0,250.0,8.06,-5.17,0.99,-9.13,-25.56,-112.75,0.74,-0.36,-0.01,-0.01,-2.55,4.15,0.35,0.0,1.0,3.0
4712,66.449165,t,300.0,259.0,106.0,68.0,241.0,160.0,203.0,247.0,8.37,-5.01,0.94,-9.63,-24.44,-115.87,0.74,-0.36,-0.02,-0.02,-2.66,3.6,0.43,0.0,1.0,3.0
4713,66.464255,t,299.0,234.0,107.0,68.0,238.0,152.0,201.0,250.0,8.47,-4.84,0.9,-10.5,-26.81,-117.19,0.74,-0.35,-0.02,-0.02,-2.61,2.96,0.24,0.0,1.0,3.0
4714,66.479416,t,301.0,229.0,108.0,69.0,240.0,144.0,198.0,248.0,8.58,-4.67,0.84,-9.31,-32.31,-117.62,0.73,-0.34,-0.04,-0.04,-2.6,2.17,0.67,0.0,1.0,3.0
4715,66.494573,t,269.0,249.0,103.0,73.0,234.0,127.0,196.0,241.0,8.85,-4.15,0.68,18.56,-37.94,-112.87,0.73,-0.33,-0.05,-0.05,-1.56,-0.82,1.37,0.0,1.0,3.0
4716,66.509646,t,266.0,254.0,99.0,73.0,233.0,124.0,197.0,240.0,8.93,-3.97,0.64,24.37,-35.06,-110.5,0.73,-0.32,-0.05,-0.05,-1.44,-0.84,1.19,0.0,1.0,3.0
4717,66.524686,t,281.0,264.0,99.0,74.0,228.0,127.0,200.0,240.0,9.01,-3.81,0.61,22.94,-30.19,-104.69,0.73,-0.31,-0.06,-0.06,-1.16,-0.93,0.8,0.0,1.0,3.0
4718,66.539715,t,314.0,289.0,102.0,71.0,230.0,144.0,206.0,243.0,9.07,-3.66,0.59,24.87,-19.31,-87.25,0.72,-0.3,-0.06,-0.06,-2.0,-1.34,0.15,0.0,1.0,3.0
4719,66.554718,t,370.0,307.0,105.0,70.0,240.0,162.0,221.0,252.0,9.22,-3.29,0.56,38.69,-17.87,-65.06,0.72,-0.29,-0.07,-0.07,-3.03,-2.01,-0.39,0.0,1.0,3.0
4720,66.569781,t,402.0,317.0,102.0,72.0,245.0,172.0,230.0,262.0,9.25,-3.2,0.55,40.0,-17.0,-54.38,0.72,-0.28,-0.07,-0.07,-3.3,-1.9,-0.57,0.0,1.0,3.0
4721,66.584814,t,442.0,334.0,103.0,71.0,254.0,186.0,247.0,278.0,9.27,-3.12,0.55,36.38,-16.25,-45.5,0.72,-0.27,-0.07,-0.07,-3.56,-1.55,-0.84,0.0,1.0,3.0
4722,66.599817,t,472.0,341.0,99.0,70.0,266.0,197.0,264.0,289.0,9.3,-3.06,0.53,26.94,-20.25,-37.69,0.72,-0.27,-0.06,-0.06,-3.94,-0.09,-0.88,0.0,1.0,3.0
4723,66.614821,t,484.0,367.0,103.0,70.0,280.0,220.0,298.0,310.0,9.35,-2.9,0.36,-8.69,-42.94,-32.13,0.72,-0.27,-0.07,-0.07,-3.18,-0.43,-0.67,0.0,1.0,3.0
4724,66.629822,t,491.0,378.0,104.0,72.0,278.0,222.0,317.0,326.0,9.37,-2.85,0.28,-8.81,-46.13,-33.69,0.71,-0.27,-0.07,-0.07,-2.42,-0.35,-0.34,0.0,1.0,3.0
4725,66.644855,t,499.0,402.0,106.0,70.0,282.0,221.0,322.0,339.0,9.39,-2.79,0.21,-2.56,-45.0,-34.63,0.71,-0.26,-0.07,-0.07,-2.37,-0.14,-0.33,0.0,1.0,3.0
4726,66.659915,t,511.0,464.0,130.0,74.0,298.0,218.0,330.0,367.0,9.42,-2.7,0.08,5.5,-39.94,-26.44,0.71,-0.26,-0.07,-0.07,-2.54,0.13,0.37,0.0,1.0,3.0
4727,66.674948,t,511.0,511.0,173.0,76.0,318.0,212.0,350.0,392.0,9.43,-2.66,0.0,8.88,-78.06,-21.19,0.7,-0.26,-0.07,-0.07,2.15,-1.37,-0.42,0.0,1.0,3.0
4728,66.68902,t,511.0,511.0,218.0,80.0,331.0,222.0,359.0,414.0,9.45,-2.59,-0.26,52.38,-101.37,-25.62,0.69,-0.25,-0.06,-0.06,6.24,-2.9,-1.77,0.0,1.0,3.0
4729,66.70509799999999,t,511.0,511.0,251.0,78.0,346.0,234.0,374.0,453.0,9.46,-2.54,-0.38,79.87,-97.0,-28.81,0.69,-0.24,-0.06,-0.06,8.61,-1.95,0.43,0.0,1.0,3.0
4730,66.719153,t,511.0,511.0,284.0,77.0,377.0,237.0,374.0,462.0,9.46,-2.5,-0.5,79.87,-97.0,-28.81,0.68,-0.24,-0.05,-0.05,4.45,-5.08,4.12,0.0,1.0,3.0
4731,66.735261,t,511.0,511.0,310.0,80.0,408.0,242.0,373.0,477.0,9.42,-2.65,-0.55,-58.5,23.62,57.38,0.69,-0.25,-0.05,-0.05,2.21,1.26,-2.29,0.0,1.0,3.0
4732,66.749386,t,511.0,511.0,328.0,80.0,419.0,240.0,386.0,459.0,9.37,-2.8,-0.58,-46.31,-9.06,94.69,0.68,-0.26,-0.05,-0.05,4.85,-0.3,0.56,0.0,1.0,3.0
4733,66.764447,t,511.0,511.0,339.0,80.0,432.0,243.0,387.0,457.0,9.32,-2.95,-0.62,-46.31,-9.06,94.69,0.68,-0.27,-0.04,-0.04,8.89,-2.62,-0.02,0.0,1.0,3.0
4734,66.779567,t,511.0,511.0,334.0,72.0,436.0,243.0,387.0,455.0,9.28,-3.08,-0.65,-35.19,-10.19,83.37,0.68,-0.28,-0.04,-0.04,9.45,-2.47,-0.43,0.0,1.0,3.0
4735,66.794646,t,511.0,511.0,302.0,72.0,404.0,233.0,372.0,418.0,9.18,-3.38,-0.55,-22.75,43.38,54.75,0.69,-0.29,-0.04,-0.04,3.77,2.98,-2.35,0.0,1.0,3.0
4736,66.809709,t,511.0,511.0,306.0,74.0,394.0,234.0,374.0,412.0,9.16,-3.44,-0.5,-14.44,37.31,42.19,0.69,-0.29,-0.04,-0.04,4.11,3.08,-2.49,0.0,1.0,3.0
4737,66.824741,t,511.0,511.0,308.0,74.0,390.0,239.0,375.0,413.0,9.15,-3.48,-0.47,-5.81,16.56,22.75,0.69,-0.29,-0.04,-0.04,6.26,2.15,-2.32,0.0,1.0,3.0
4738,66.84083,t,511.0,511.0,318.0,73.0,390.0,238.0,380.0,411.0,9.15,-3.48,-0.47,17.81,-16.44,-29.37,0.69,-0.29,-0.04,-0.04,5.72,1.56,-2.22,0.0,1.0,3.0
4739,66.854837,t,511.0,511.0,350.0,73.0,408.0,246.0,377.0,430.0,9.2,-3.34,-0.51,20.5,-15.38,-38.94,0.69,-0.28,-0.04,-0.04,4.19,0.82,-1.94,0.0,1.0,3.0
4740,66.869885,t,511.0,511.0,350.0,73.0,426.0,244.0,373.0,436.0,9.22,-3.27,-0.52,24.12,-13.63,-46.19,0.69,-0.28,-0.04,-0.04,3.41,0.36,-1.48,0.0,1.0,3.0
4741,66.884889,t,511.0,511.0,346.0,73.0,440.0,242.0,376.0,444.0,9.25,-3.19,-0.52,26.37,-11.81,-51.31,0.69,-0.28,-0.04,-0.04,2.47,-0.36,-1.0,0.0,1.0,3.0
4742,66.900001,t,511.0,511.0,354.0,73.0,454.0,238.0,376.0,454.0,9.3,-3.04,-0.53,38.5,-15.25,-50.75,0.69,-0.27,-0.04,-0.04,1.06,-0.89,0.71,0.0,1.0,3.0
4743,66.91508,t,511.0,511.0,361.0,75.0,460.0,244.0,384.0,462.0,9.33,-2.97,-0.53,47.0,-13.75,-45.81,0.69,-0.25,-0.04,-0.04,0.71,-0.54,0.76,0.0,1.0,3.0
4744,66.92916,t,511.0,511.0,356.0,74.0,447.0,239.0,378.0,450.0,9.36,-2.86,-0.49,54.88,-2.19,-34.5,0.69,-0.25,-0.04,-0.04,0.29,0.78,1.14,0.0,1.0,3.0
4745,66.944272,t,511.0,511.0,360.0,73.0,442.0,243.0,381.0,450.0,9.38,-2.81,-0.46,49.5,6.19,-32.31,0.69,-0.24,-0.04,-0.04,0.02,0.67,1.06,0.0,1.0,3.0
4746,66.959385,t,511.0,511.0,361.0,73.0,440.0,250.0,382.0,436.0,9.41,-2.72,-0.36,37.63,23.56,-30.12,0.69,-0.24,-0.04,-0.04,-0.86,0.25,0.87,0.0,1.0,3.0
4747,66.974528,t,511.0,511.0,364.0,73.0,438.0,252.0,374.0,444.0,9.42,-2.67,-0.3,30.0,29.06,-29.0,0.7,-0.23,-0.04,-0.04,-2.09,0.19,0.79,0.0,1.0,3.0
4748,66.989643,t,511.0,511.0,364.0,73.0,439.0,253.0,371.0,447.0,9.45,-2.59,-0.18,13.31,31.94,-25.94,0.7,-0.23,-0.04,-0.04,-3.55,0.24,0.37,0.0,1.0,3.0
4749,67.004676,t,511.0,511.0,361.0,73.0,438.0,257.0,369.0,438.0,9.47,-2.51,-0.08,-2.0,28.56,-24.0,0.7,-0.22,-0.04,-0.04,-4.98,1.19,-0.03,0.0,1.0,3.0
4750,67.019679,t,511.0,511.0,362.0,74.0,445.0,266.0,390.0,458.0,9.48,-2.47,-0.04,-10.25,27.25,-24.94,0.7,-0.22,-0.05,-0.05,-5.39,1.23,-0.66,0.0,1.0,3.0
4751,67.034682,t,511.0,511.0,361.0,74.0,440.0,258.0,378.0,430.0,9.5,-2.42,0.0,-19.37,26.19,-26.37,0.71,-0.22,-0.05,-0.05,-5.37,0.98,-1.47,0.0,1.0,3.0
4752,67.049715,t,511.0,511.0,355.0,75.0,457.0,260.0,386.0,454.0,9.52,-2.33,0.03,-36.56,13.69,-29.25,0.71,-0.22,-0.06,-0.06,-4.2,-2.79,-2.28,0.0,1.0,3.0
4753,67.064749,t,511.0,511.0,350.0,79.0,447.0,248.0,364.0,440.0,9.54,-2.24,0.04,-38.19,6.25,-26.56,0.71,-0.22,-0.06,-0.06,-3.67,-3.8,-2.47,0.0,1.0,3.0
4754,67.07978,t,511.0,511.0,344.0,81.0,447.0,247.0,360.0,447.0,9.55,-2.2,0.02,-32.88,-0.56,-20.37,0.7,-0.22,-0.07,-0.07,-3.2,-3.84,-1.52,0.0,1.0,3.0
4755,67.09484,t,511.0,511.0,340.0,80.0,446.0,246.0,354.0,450.0,9.55,-2.18,0.0,-24.81,-6.94,-12.63,0.7,-0.22,-0.07,-0.07,-3.13,-3.42,-1.07,0.0,1.0,3.0
4756,67.109869,t,511.0,511.0,340.0,81.0,459.0,249.0,355.0,462.0,9.56,-2.17,-0.01,-17.25,-6.44,-2.31,0.7,-0.22,-0.07,-0.07,-3.2,-3.64,-1.71,0.0,1.0,3.0
4757,67.124931,t,511.0,511.0,328.0,77.0,471.0,245.0,355.0,462.0,9.56,-2.17,-0.04,-9.69,-4.5,1.31,0.7,-0.22,-0.07,-0.07,-2.52,-4.14,-0.45,0.0,1.0,3.0
4758,67.139985,t,511.0,511.0,317.0,77.0,510.0,243.0,347.0,456.0,9.55,-2.2,-0.04,3.12,-1.0,11.25,0.7,-0.22,-0.06,-0.06,-2.1,-4.24,-0.03,0.0,1.0,3.0
4759,67.15499,t,511.0,511.0,303.0,76.0,511.0,244.0,344.0,458.0,9.54,-2.23,-0.03,3.19,5.37,17.19,0.7,-0.22,-0.06,-0.06,-1.38,-3.95,-0.31,0.0,1.0,3.0
4760,67.168993,t,511.0,511.0,289.0,78.0,511.0,243.0,341.0,450.0,9.53,-2.27,-0.01,5.44,14.81,25.0,0.71,-0.23,-0.06,-0.06,-1.6,-3.66,0.3,0.0,1.0,3.0
4761,67.184986,t,511.0,511.0,257.0,78.0,506.0,252.0,314.0,417.0,9.48,-2.49,0.15,-10.81,40.25,54.81,0.71,-0.23,-0.06,-0.06,-0.3,-3.29,-0.31,0.0,1.0,3.0
4762,67.199995,t,511.0,511.0,219.0,77.0,488.0,251.0,302.0,398.0,9.45,-2.59,0.22,-17.06,42.0,65.69,0.71,-0.23,-0.05,-0.05,0.12,-3.33,0.2,0.0,1.0,3.0
4763,67.215002,t,511.0,511.0,184.0,78.0,466.0,248.0,291.0,369.0,9.41,-2.71,0.28,-45.94,44.88,80.81,0.72,-0.24,-0.05,-0.05,0.99,-4.61,1.1,0.0,1.0,3.0
4764,67.230005,t,496.0,511.0,158.0,80.0,426.0,239.0,272.0,340.0,9.32,-2.99,0.36,-60.63,35.81,88.94,0.72,-0.25,-0.05,-0.05,3.51,-4.28,0.74,0.0,1.0,3.0
4765,67.245008,t,386.0,410.0,132.0,81.0,351.0,230.0,245.0,289.0,9.21,-3.34,0.36,-67.0,20.81,112.37,0.72,-0.27,-0.04,-0.04,6.42,-1.94,0.86,0.0,1.0,3.0
4766,67.259012,t,356.0,372.0,129.0,81.0,315.0,223.0,238.0,278.0,9.13,-3.55,0.35,-73.62,20.69,127.75,0.72,-0.28,-0.03,-0.03,7.44,-1.31,0.29,0.0,1.0,3.0
4767,67.274015,t,329.0,359.0,124.0,81.0,296.0,215.0,230.0,262.0,9.04,-3.78,0.33,-81.0,21.06,144.62,0.72,-0.31,-0.02,-0.02,7.79,-0.07,-0.17,0.0,1.0,3.0
4768,67.28902,t,316.0,338.0,124.0,80.0,283.0,204.0,230.0,253.0,8.8,-4.3,0.25,-96.06,11.38,172.56,0.72,-0.32,-0.02,-0.02,7.26,0.02,-0.07,0.0,1.0,3.0
4769,67.305041,t,267.0,266.0,121.0,76.0,268.0,196.0,238.0,237.0,8.51,-4.86,0.12,-92.19,7.31,189.94,0.71,-0.35,-0.01,-0.01,5.15,2.18,-0.4,0.0,1.0,3.0
4770,67.319123,t,259.0,258.0,120.0,69.0,272.0,191.0,232.0,236.0,8.35,-5.13,0.06,-80.37,8.25,184.81,0.71,-0.37,-0.0,-0.0,4.96,2.08,-0.77,0.0,1.0,3.0
4771,67.335152,t,266.0,243.0,118.0,69.0,294.0,204.0,242.0,248.0,8.2,-5.37,0.02,-55.19,9.63,153.94,0.71,-0.39,0.01,0.01,2.82,-0.57,-3.07,0.0,1.0,3.0
4772,67.349212,t,296.0,235.0,113.0,70.0,298.0,206.0,238.0,251.0,7.92,-5.78,-0.06,-42.19,-6.56,138.56,0.7,-0.4,0.02,0.02,1.99,-0.57,-1.97,0.0,1.0,3.0
4773,67.365274,t,337.0,239.0,101.0,69.0,330.0,218.0,239.0,277.0,7.67,-6.1,-0.14,-2.12,-25.12,114.44,0.7,-0.42,0.04,0.04,2.23,-0.47,0.88,0.0,1.0,3.0
4774,67.37942,t,350.0,263.0,96.0,69.0,327.0,216.0,224.0,275.0,7.56,-6.23,-0.15,51.0,-8.75,87.81,0.7,-0.42,0.05,0.05,2.44,1.38,2.2,0.0,1.0,3.0
4775,67.394498,t,337.0,266.0,105.0,70.0,330.0,221.0,230.0,275.0,7.38,-6.44,-0.02,78.06,0.5,72.44,0.7,-0.42,0.06,0.06,2.37,3.14,1.76,0.0,1.0,3.0
4776,67.40958,t,333.0,281.0,106.0,69.0,323.0,212.0,219.0,267.0,7.32,-6.51,0.1,99.0,8.63,56.19,0.71,-0.42,0.07,0.07,1.83,4.35,1.71,0.0,1.0,3.0
4777,67.424642,t,337.0,289.0,106.0,70.0,315.0,206.0,224.0,266.0,7.28,-6.56,0.24,109.31,16.06,40.0,0.71,-0.4,0.09,0.09,-1.36,5.77,0.53,0.0,1.0,3.0
4778,67.440668,t,352.0,294.0,104.0,72.0,310.0,196.0,229.0,275.0,7.24,-6.59,0.51,92.87,17.69,8.63,0.72,-0.4,0.09,0.09,-3.69,6.93,-0.54,0.0,1.0,3.0
4779,67.454671,t,340.0,300.0,106.0,72.0,307.0,190.0,229.0,276.0,7.24,-6.57,0.61,56.63,9.75,-22.87,0.73,-0.39,0.09,0.09,-3.83,7.04,-0.16,0.0,1.0,3.0
4780,67.46970400000001,t,332.0,312.0,98.0,68.0,298.0,183.0,224.0,272.0,7.31,-6.48,0.73,36.88,1.06,-39.88,0.73,-0.39,0.09,0.09,-3.91,7.53,0.19,0.0,1.0,3.0
4781,67.484722,t,330.0,274.0,94.0,70.0,276.0,170.0,219.0,246.0,7.46,-6.31,0.7,-19.0,-11.81,-75.62,0.73,-0.38,0.08,0.08,-2.83,7.14,0.39,0.0,1.0,3.0
4782,67.499765,t,330.0,250.0,96.0,68.0,270.0,163.0,218.0,217.0,7.56,-6.2,0.64,-44.69,-12.38,-91.12,0.73,-0.38,0.07,0.07,-2.58,6.71,0.91,0.0,1.0,3.0
4783,67.514798,t,338.0,205.0,101.0,69.0,263.0,156.0,219.0,174.0,7.67,-6.07,0.56,-60.56,-10.38,-102.62,0.72,-0.38,0.05,0.05,-2.46,6.09,1.04,0.0,1.0,3.0
4784,67.52989,t,332.0,189.0,103.0,70.0,246.0,145.0,235.0,134.0,8.05,-5.59,0.24,-88.31,-23.75,-135.44,0.72,-0.37,0.03,0.03,-0.82,2.12,2.14,0.0,1.0,3.0
4785,67.544909,t,338.0,221.0,94.0,70.0,240.0,148.0,252.0,124.0,8.18,-5.39,0.12,-93.37,-26.37,-143.06,0.71,-0.37,0.02,0.02,-0.31,0.68,1.44,0.0,1.0,3.0
4786,67.559008,t,332.0,247.0,92.0,73.0,240.0,161.0,274.0,123.0,8.31,-5.19,0.0,-93.56,-25.0,-144.69,0.71,-0.37,0.0,0.0,-0.18,-3.74,0.18,0.0,1.0,3.0
4787,67.574085,t,330.0,273.0,92.0,73.0,237.0,162.0,264.0,118.0,8.44,-4.98,-0.11,-92.0,-26.25,-142.81,0.7,-0.37,-0.02,-0.02,0.38,-6.51,-0.52,0.0,1.0,3.0
4788,67.589148,t,339.0,324.0,92.0,73.0,244.0,174.0,286.0,114.0,8.55,-4.78,-0.23,-67.87,9.81,-100.62,0.7,-0.36,-0.04,-0.04,-0.97,-14.25,-8.37,0.0,1.0,3.0
4789,67.60517899999999,t,362.0,363.0,91.0,68.0,283.0,200.0,330.0,116.0,8.79,-4.33,-0.23,33.56,27.31,-84.5,0.7,-0.35,-0.04,-0.04,-2.05,-14.28,-8.03,0.0,1.0,3.0
4790,67.619262,t,364.0,363.0,90.0,68.0,291.0,202.0,332.0,118.0,8.84,-4.23,-0.12,96.37,26.31,-66.94,0.7,-0.34,-0.04,-0.04,-2.72,-12.48,-3.31,0.0,1.0,3.0
4791,67.634441,t,373.0,360.0,92.0,69.0,292.0,199.0,328.0,118.0,8.87,-4.17,0.0,133.06,14.31,-41.69,0.71,-0.32,-0.03,-0.03,-0.36,-1.11,-1.11,0.0,1.0,3.0
4792,67.649663,t,406.0,361.0,96.0,69.0,270.0,188.0,295.0,126.0,8.86,-4.18,0.07,31.0,-31.06,46.25,0.71,-0.33,-0.02,-0.02,-1.15,1.21,-1.65,0.0,1.0,3.0
4793,67.664694,t,420.0,374.0,110.0,69.0,265.0,184.0,292.0,136.0,8.79,-4.33,0.0,14.13,-41.31,54.13,0.71,-0.33,-0.02,-0.02,-2.69,2.73,-2.1,0.0,1.0,3.0
4794,67.679699,t,434.0,398.0,144.0,76.0,272.0,166.0,304.0,166.0,8.76,-4.4,-0.06,14.13,-52.88,43.69,0.7,-0.33,-0.01,-0.01,-6.77,4.32,-1.25,0.0,1.0,3.0
4795,67.694717,t,497.0,486.0,259.0,78.0,275.0,188.0,340.0,202.0,8.74,-4.42,-0.23,50.44,-82.37,-7.56,0.7,-0.33,-0.0,-0.0,-6.4,3.88,1.76,0.0,1.0,3.0
4796,67.709732,t,511.0,511.0,283.0,79.0,290.0,208.0,360.0,235.0,8.77,-4.37,-0.32,39.38,-81.87,-39.5,0.69,-0.32,-0.0,-0.0,-2.14,2.34,6.0,0.0,1.0,3.0
4797,67.72473600000001,t,511.0,511.0,312.0,78.0,318.0,233.0,366.0,277.0,8.82,-4.26,-0.45,-73.81,-98.5,-106.31,0.68,-0.32,-0.01,-0.01,15.98,0.96,3.52,0.0,1.0,3.0
4798,67.740739,t,511.0,511.0,365.0,78.0,358.0,242.0,381.0,345.0,8.97,-3.81,-1.03,14.44,-85.62,-70.94,0.67,-0.31,-0.02,-0.02,3.29,-4.53,-4.12,0.0,1.0,3.0
4799,67.754744,t,511.0,511.0,396.0,70.0,347.0,225.0,373.0,334.0,8.97,-3.8,-1.04,105.19,-52.69,-20.44,0.67,-0.3,-0.01,-0.01,0.28,-0.09,3.92,0.0,1.0,3.0
4800,67.769745,t,511.0,511.0,389.0,68.0,337.0,218.0,372.0,338.0,8.96,-3.83,-1.03,74.06,-26.31,14.63,0.67,-0.3,-0.0,-0.0,-0.11,2.03,3.15,0.0,1.0,3.0
4801,67.784749,t,511.0,511.0,406.0,69.0,336.0,226.0,380.0,344.0,8.9,-3.99,-0.98,53.25,-0.75,51.63,0.67,-0.3,0.01,0.01,6.4,10.56,-3.71,0.0,1.0,3.0
4802,67.799743,t,511.0,511.0,414.0,73.0,361.0,238.0,389.0,374.0,8.88,-4.04,-0.87,39.38,11.5,-7.62,0.67,-0.29,0.01,0.01,5.72,8.12,-2.25,0.0,1.0,3.0
4803,67.814755,t,511.0,511.0,394.0,74.0,376.0,242.0,391.0,408.0,8.9,-3.99,-0.88,18.44,-14.69,-33.44,0.67,-0.29,0.01,0.01,5.44,5.41,-2.5,0.0,1.0,3.0
4804,67.829788,t,511.0,511.0,385.0,77.0,396.0,250.0,387.0,434.0,8.93,-3.93,-0.93,11.63,-37.19,-44.69,0.67,-0.28,0.01,0.01,8.71,1.61,-3.69,0.0,1.0,3.0
4805,67.844791,t,511.0,511.0,371.0,77.0,423.0,247.0,383.0,453.0,8.96,-3.85,-0.99,24.94,-46.31,-52.69,0.67,-0.27,0.01,0.01,7.28,2.27,0.93,0.0,1.0,3.0
4806,67.859795,t,511.0,511.0,386.0,77.0,459.0,248.0,389.0,470.0,9.04,-3.65,-0.97,67.87,3.12,-45.31,0.67,-0.26,0.01,0.01,6.21,4.12,0.58,0.0,1.0,3.0
4807,67.874796,t,511.0,511.0,402.0,75.0,462.0,246.0,389.0,486.0,9.07,-3.59,-0.91,72.31,9.75,-46.44,0.67,-0.26,0.01,0.01,5.65,5.99,1.19,0.0,1.0,3.0
4808,67.889801,t,511.0,511.0,426.0,78.0,458.0,256.0,399.0,494.0,9.11,-3.51,-0.85,60.44,15.94,-52.31,0.68,-0.25,0.01,0.01,4.85,6.69,1.91,0.0,1.0,3.0
4809,67.904805,t,511.0,511.0,464.0,69.0,415.0,267.0,408.0,492.0,9.19,-3.32,-0.74,19.5,22.12,-69.12,0.68,-0.24,0.0,0.0,2.65,4.68,0.28,0.0,1.0,3.0
4810,67.919808,t,511.0,511.0,471.0,68.0,393.0,262.0,395.0,465.0,9.28,-3.08,-0.71,-18.19,12.38,-74.62,0.68,-0.23,-0.0,-0.0,3.18,3.29,-0.61,0.0,1.0,3.0
4811,67.934839,t,511.0,511.0,458.0,70.0,387.0,266.0,419.0,489.0,9.32,-2.95,-0.7,-34.44,13.5,-75.06,0.68,-0.23,-0.01,-0.01,2.14,2.34,-1.96,0.0,1.0,3.0
4812,67.949872,t,511.0,511.0,419.0,69.0,367.0,251.0,400.0,462.0,9.39,-2.7,-0.73,-57.69,4.0,-76.62,0.68,-0.23,-0.02,-0.02,0.88,1.06,-1.49,0.0,1.0,3.0
4813,67.964928,t,511.0,511.0,406.0,69.0,362.0,243.0,396.0,462.0,9.43,-2.56,-0.76,-60.81,0.62,-77.19,0.68,-0.22,-0.04,-0.04,-0.36,0.44,-1.0,0.0,1.0,3.0
4814,67.97896,t,511.0,511.0,412.0,69.0,358.0,239.0,401.0,459.0,9.49,-2.3,-0.8,-48.38,0.81,-73.81,0.68,-0.22,-0.05,-0.05,-1.23,0.0,-0.78,0.0,1.0,3.0
4815,67.994981,t,511.0,511.0,416.0,71.0,358.0,245.0,419.0,474.0,9.52,-2.18,-0.81,-39.63,2.19,-71.12,0.67,-0.22,-0.05,-0.05,-1.39,-0.26,-0.52,0.0,1.0,3.0
4816,68.009044,t,511.0,511.0,414.0,70.0,348.0,236.0,409.0,458.0,9.57,-1.95,-0.82,-19.81,6.31,-67.5,0.67,-0.22,-0.06,-0.06,-1.22,-0.6,-0.18,0.0,1.0,3.0
4817,68.025073,t,511.0,511.0,438.0,74.0,353.0,242.0,408.0,460.0,9.59,-1.84,-0.8,-10.31,10.94,-67.12,0.67,-0.21,-0.07,-0.07,-1.66,-0.58,0.18,0.0,1.0,3.0
4818,68.039134,t,511.0,511.0,444.0,74.0,344.0,247.0,412.0,455.0,9.62,-1.73,-0.78,-3.25,15.94,-67.81,0.68,-0.2,-0.08,-0.08,-2.75,-0.87,0.13,0.0,1.0,3.0
4819,68.055192,t,511.0,511.0,456.0,75.0,347.0,248.0,413.0,458.0,9.64,-1.61,-0.74,7.44,17.69,-65.69,0.68,-0.2,-0.08,-0.08,-2.77,-0.94,0.08,0.0,1.0,3.0
4820,68.069269,t,511.0,511.0,479.0,77.0,354.0,259.0,436.0,474.0,9.69,-1.3,-0.66,13.13,11.0,-60.44,0.68,-0.19,-0.09,-0.09,-2.5,-1.22,-0.32,0.0,1.0,3.0
4821,68.08442,t,511.0,511.0,464.0,76.0,349.0,255.0,432.0,471.0,9.7,-1.21,-0.65,14.5,4.75,-59.25,0.68,-0.19,-0.09,-0.09,-2.28,-1.38,-0.23,0.0,1.0,3.0
4822,68.099514,t,511.0,511.0,464.0,78.0,359.0,263.0,450.0,484.0,9.72,-1.11,-0.65,13.81,-1.12,-58.38,0.68,-0.18,-0.09,-0.09,-2.2,-1.43,-0.22,0.0,1.0,3.0
4823,68.114797,t,511.0,511.0,466.0,79.0,357.0,260.0,446.0,482.0,9.74,-0.92,-0.66,6.75,-5.69,-56.63,0.67,-0.17,-0.1,-0.1,-1.26,-1.55,-0.51,0.0,1.0,3.0
4824,68.129839,t,511.0,511.0,490.0,82.0,359.0,263.0,454.0,504.0,9.75,-0.73,-0.68,6.5,-7.44,-55.44,0.67,-0.17,-0.1,-0.1,-0.94,-1.55,-0.68,0.0,1.0,3.0
4825,68.145831,t,511.0,511.0,488.0,81.0,359.0,265.0,447.0,504.0,9.75,-0.64,-0.7,5.25,-8.94,-53.81,0.67,-0.16,-0.11,-0.11,-1.02,-1.67,-1.08,0.0,1.0,3.0
4826,68.159906,t,511.0,511.0,490.0,83.0,362.0,270.0,453.0,499.0,9.76,-0.56,-0.71,3.75,-9.0,-50.88,0.67,-0.16,-0.11,-0.11,-1.4,-1.68,-1.03,0.0,1.0,3.0
4827,68.174927,t,511.0,511.0,496.0,86.0,358.0,272.0,468.0,511.0,9.76,-0.41,-0.74,-12.75,-5.12,-37.88,0.67,-0.15,-0.12,-0.12,-1.02,-2.2,-1.5,0.0,1.0,3.0
4828,68.190024,t,511.0,511.0,498.0,88.0,361.0,272.0,484.0,511.0,9.77,-0.28,-0.76,-15.63,-7.69,-34.25,0.67,-0.15,-0.12,-0.12,0.07,-2.53,-1.94,0.0,1.0,3.0
4829,68.20505299999999,t,511.0,511.0,506.0,90.0,363.0,270.0,492.0,511.0,9.77,-0.23,-0.77,-16.62,-7.94,-31.44,0.67,-0.15,-0.12,-0.12,0.27,-2.72,-1.85,0.0,1.0,3.0
4830,68.219144,t,511.0,511.0,511.0,94.0,363.0,270.0,498.0,511.0,9.77,-0.17,-0.79,-18.19,-8.06,-29.25,0.67,-0.15,-0.13,-0.13,0.32,-2.87,-1.62,0.0,1.0,3.0
4831,68.235233,t,511.0,511.0,511.0,96.0,358.0,265.0,484.0,511.0,9.77,-0.09,-0.8,-19.94,-0.31,-22.81,0.66,-0.15,-0.13,-0.13,0.46,-4.55,-1.34,0.0,1.0,3.0
4832,68.250295,t,511.0,511.0,507.0,98.0,364.0,263.0,484.0,511.0,9.77,-0.05,-0.79,-15.5,6.37,-13.19,0.66,-0.15,-0.13,-0.13,0.51,-4.86,-1.51,0.0,1.0,3.0
4833,68.264439,t,511.0,511.0,511.0,104.0,360.0,262.0,469.0,511.0,9.77,-0.01,-0.77,-14.25,7.25,-7.12,0.66,-0.15,-0.14,-0.14,0.77,-5.55,-0.93,0.0,1.0,3.0
4834,68.279526,t,511.0,511.0,475.0,100.0,363.0,245.0,438.0,492.0,9.77,-0.02,-0.73,-25.5,13.56,8.56,0.67,-0.15,-0.14,-0.14,0.82,-6.33,-0.33,0.0,1.0,3.0
4835,68.29464899999999,t,511.0,511.0,440.0,99.0,360.0,231.0,406.0,470.0,9.78,-0.05,-0.7,-32.81,19.44,21.62,0.67,-0.15,-0.14,-0.14,0.65,-6.27,-0.12,0.0,1.0,3.0
4836,68.309653,t,506.0,511.0,408.0,98.0,363.0,219.0,396.0,465.0,9.78,-0.11,-0.66,-41.13,23.81,36.25,0.67,-0.16,-0.14,-0.14,-0.01,-5.99,0.16,0.0,1.0,3.0
4837,68.324656,t,492.0,470.0,374.0,96.0,361.0,213.0,380.0,460.0,9.78,-0.19,-0.62,-62.25,26.94,70.12,0.67,-0.17,-0.14,-0.14,1.36,-5.41,1.16,0.0,1.0,3.0
4838,68.339687,t,444.0,386.0,308.0,94.0,351.0,190.0,333.0,416.0,9.77,-0.64,-0.48,-74.31,36.38,114.75,0.68,-0.19,-0.14,-0.14,2.5,-4.2,1.92,0.0,1.0,3.0
4839,68.354718,t,418.0,357.0,284.0,88.0,329.0,176.0,310.0,398.0,9.75,-0.86,-0.41,-77.62,47.5,137.19,0.68,-0.2,-0.14,-0.14,2.7,-3.04,2.08,0.0,1.0,3.0
4840,68.369795,t,407.0,335.0,270.0,85.0,308.0,156.0,290.0,366.0,9.73,-1.12,-0.32,-76.37,58.44,156.31,0.69,-0.23,-0.13,-0.13,2.76,-1.22,2.41,0.0,1.0,3.0
4841,68.384817,t,335.0,288.0,246.0,86.0,278.0,131.0,242.0,295.0,9.6,-1.98,-0.02,-94.44,79.69,175.12,0.7,-0.26,-0.12,-0.12,5.64,4.65,1.05,0.0,1.0,3.0
4842,68.399865,t,311.0,282.0,238.0,84.0,274.0,130.0,237.0,270.0,9.54,-2.25,0.08,-111.44,87.31,164.31,0.7,-0.28,-0.12,-0.12,7.2,5.53,0.27,0.0,1.0,3.0
4843,68.414862,t,283.0,270.0,222.0,83.0,268.0,131.0,226.0,244.0,9.47,-2.5,0.18,-132.12,95.25,148.0,0.7,-0.29,-0.12,-0.12,6.68,6.74,0.14,0.0,1.0,3.0
4844,68.429865,t,262.0,258.0,196.0,82.0,262.0,134.0,212.0,222.0,9.41,-2.72,0.26,-156.19,94.44,133.44,0.71,-0.32,-0.13,-0.13,1.75,5.19,-0.9,0.0,1.0,3.0
4845,68.444924,t,258.0,262.0,165.0,80.0,262.0,130.0,194.0,215.0,9.22,-3.3,0.17,-196.19,13.94,110.06,0.7,-0.36,-0.13,-0.13,3.67,2.69,1.48,0.0,1.0,3.0
4846,68.458979,t,254.0,254.0,153.0,81.0,270.0,134.0,191.0,222.0,9.16,-3.48,0.05,-212.37,7.06,108.12,0.7,-0.38,-0.14,-0.14,3.75,1.59,1.73,0.0,1.0,3.0
4847,68.475091,t,264.0,235.0,142.0,78.0,284.0,147.0,197.0,237.0,9.09,-3.65,-0.06,-221.12,4.75,109.37,0.69,-0.39,-0.14,-0.14,3.52,0.21,1.77,0.0,1.0,3.0
4848,68.489202,t,281.0,218.0,141.0,73.0,287.0,149.0,194.0,238.0,9.02,-3.82,-0.19,-213.81,5.37,112.25,0.68,-0.44,-0.15,-0.15,1.95,-1.61,1.69,0.0,1.0,3.0
4849,68.505322,t,292.0,197.0,130.0,72.0,296.0,162.0,207.0,247.0,8.86,-4.17,-0.39,-109.0,-8.94,122.12,0.67,-0.46,-0.15,-0.15,-0.46,-2.13,1.52,0.0,1.0,3.0
4850,68.519494,t,288.0,203.0,138.0,72.0,301.0,160.0,214.0,247.0,8.68,-4.52,-0.55,-64.0,-15.5,117.87,0.67,-0.47,-0.15,-0.15,-0.62,-1.46,1.11,0.0,1.0,3.0
4851,68.53461,t,271.0,204.0,149.0,72.0,298.0,158.0,218.0,243.0,8.59,-4.68,-0.57,-14.19,-4.87,105.12,0.67,-0.47,-0.14,-0.14,-1.29,0.32,2.28,0.0,1.0,3.0
4852,68.54964,t,262.0,210.0,158.0,73.0,290.0,158.0,221.0,235.0,8.44,-4.95,-0.53,59.44,-10.69,83.0,0.68,-0.48,-0.13,-0.13,-1.72,1.66,0.66,0.0,1.0,3.0
4853,68.564643,t,270.0,202.0,151.0,71.0,288.0,163.0,219.0,232.0,8.38,-5.06,-0.46,90.31,-5.75,74.31,0.68,-0.47,-0.11,-0.11,-2.01,4.87,0.42,0.0,1.0,3.0
4854,68.579665,t,280.0,263.0,131.0,70.0,286.0,169.0,217.0,230.0,8.27,-5.25,-0.31,97.56,-9.5,57.31,0.69,-0.47,-0.1,-0.1,-2.0,5.59,0.26,0.0,1.0,3.0
4855,68.594688,t,296.0,323.0,112.0,69.0,285.0,181.0,218.0,235.0,8.22,-5.38,-0.19,70.62,-7.19,35.5,0.69,-0.46,-0.09,-0.09,-3.07,7.91,0.5,0.0,1.0,3.0
4856,68.609701,t,340.0,334.0,99.0,69.0,289.0,185.0,220.0,251.0,8.17,-5.41,-0.15,56.06,-9.31,24.94,0.7,-0.46,-0.08,-0.08,-3.01,7.38,0.74,0.0,1.0,3.0
4857,68.624729,t,365.0,297.0,93.0,69.0,295.0,200.0,222.0,266.0,8.16,-5.43,-0.11,50.5,-9.75,13.38,0.7,-0.46,-0.08,-0.08,-2.54,6.77,1.21,0.0,1.0,3.0
4858,68.639758,t,392.0,250.0,86.0,68.0,285.0,197.0,219.0,267.0,8.15,-5.43,-0.08,34.5,-8.69,-13.44,0.7,-0.45,-0.07,-0.07,-3.3,6.09,1.37,0.0,1.0,3.0
4859,68.65476100000001,t,420.0,224.0,86.0,69.0,286.0,204.0,226.0,247.0,8.23,-5.31,-0.08,-2.25,-13.06,-43.5,0.7,-0.45,-0.08,-0.08,-3.06,6.16,1.14,0.0,1.0,3.0
4860,68.669793,t,453.0,194.0,84.0,68.0,284.0,189.0,258.0,222.0,8.28,-5.23,-0.12,-28.25,-12.81,-56.19,0.7,-0.45,-0.08,-0.08,-1.91,4.82,1.06,0.0,1.0,3.0
4861,68.684797,t,433.0,184.0,94.0,69.0,286.0,190.0,272.0,201.0,8.35,-5.13,-0.18,-45.63,-8.81,-68.06,0.69,-0.45,-0.09,-0.09,-1.74,3.6,1.1,0.0,1.0,3.0
4862,68.699816,t,406.0,179.0,99.0,69.0,274.0,181.0,273.0,163.0,8.41,-5.02,-0.23,-47.5,-7.75,-85.19,0.69,-0.44,-0.11,-0.11,-0.72,-0.45,1.47,0.0,1.0,3.0
4863,68.714819,t,363.0,203.0,99.0,69.0,262.0,180.0,264.0,142.0,8.62,-4.64,-0.37,-33.56,-13.69,-82.94,0.68,-0.44,-0.11,-0.11,-0.49,-2.12,0.73,0.0,1.0,3.0
4864,68.729823,t,358.0,216.0,96.0,69.0,261.0,180.0,246.0,140.0,8.68,-4.53,-0.41,-22.0,-13.31,-75.37,0.68,-0.44,-0.12,-0.12,-0.39,-2.93,0.03,0.0,1.0,3.0
4865,68.744863,t,362.0,226.0,96.0,68.0,255.0,181.0,240.0,144.0,8.73,-4.43,-0.44,-11.75,-11.63,-61.63,0.68,-0.44,-0.12,-0.12,-1.21,-2.94,-2.06,0.0,1.0,3.0
4866,68.759895,t,387.0,252.0,95.0,69.0,250.0,185.0,233.0,164.0,8.79,-4.3,-0.45,8.19,-5.56,-39.19,0.68,-0.43,-0.13,-0.13,-1.74,-2.3,-1.73,0.0,1.0,3.0
4867,68.774955,t,404.0,289.0,93.0,70.0,250.0,184.0,236.0,174.0,8.85,-4.19,-0.43,24.0,0.25,-38.94,0.68,-0.43,-0.13,-0.13,-2.83,-1.19,-0.79,0.0,1.0,3.0
4868,68.788987,t,415.0,313.0,92.0,70.0,246.0,182.0,241.0,182.0,8.88,-4.12,-0.4,33.88,1.87,-46.25,0.68,-0.42,-0.13,-0.13,-3.48,-0.34,0.1,0.0,1.0,3.0
4869,68.804991,t,418.0,338.0,92.0,71.0,240.0,184.0,246.0,186.0,8.92,-4.04,-0.37,42.06,1.25,-53.94,0.68,-0.42,-0.13,-0.13,-3.48,-0.18,0.66,0.0,1.0,3.0
4870,68.819023,t,410.0,349.0,92.0,74.0,242.0,191.0,257.0,208.0,9.0,-3.86,-0.32,40.63,-3.19,-63.63,0.68,-0.4,-0.14,-0.14,-2.71,-0.58,1.62,0.0,1.0,3.0
4871,68.835127,t,417.0,381.0,93.0,75.0,238.0,195.0,255.0,209.0,9.04,-3.76,-0.3,41.88,-5.69,-56.25,0.68,-0.39,-0.14,-0.14,-2.83,-0.6,2.03,0.0,1.0,3.0
4872,68.849157,t,406.0,379.0,92.0,77.0,244.0,200.0,268.0,222.0,9.11,-3.61,-0.27,42.19,-9.13,-45.19,0.68,-0.39,-0.14,-0.14,-3.1,-0.9,1.48,0.0,1.0,3.0
4873,68.864212,t,408.0,369.0,93.0,74.0,244.0,196.0,258.0,218.0,9.13,-3.56,-0.26,44.19,-13.13,-33.44,0.68,-0.39,-0.14,-0.14,-3.85,-1.0,-0.26,0.0,1.0,3.0
4874,68.879275,t,387.0,348.0,106.0,77.0,250.0,191.0,249.0,234.0,9.15,-3.5,-0.27,67.87,-30.37,-14.31,0.69,-0.37,-0.12,-0.12,-3.7,-0.89,-1.71,0.0,1.0,3.0
4875,68.89447200000001,t,379.0,343.0,115.0,78.0,255.0,181.0,249.0,238.0,9.15,-3.49,-0.28,79.62,-36.69,-9.19,0.69,-0.37,-0.12,-0.12,-3.13,-0.44,-1.51,0.0,1.0,3.0
4876,68.909637,t,380.0,350.0,124.0,78.0,257.0,154.0,254.0,244.0,9.16,-3.48,-0.29,93.31,-43.06,-13.88,0.69,-0.36,-0.11,-0.11,-2.51,-0.17,0.4,0.0,1.0,3.0
4877,68.924652,t,395.0,359.0,161.0,77.0,266.0,151.0,273.0,257.0,9.17,-3.44,-0.33,94.12,-54.44,-18.31,0.69,-0.35,-0.11,-0.11,-2.07,0.5,2.42,0.0,1.0,3.0
4878,68.939722,t,459.0,433.0,250.0,81.0,284.0,212.0,315.0,355.0,9.19,-3.35,-0.56,30.19,-108.81,-34.19,0.68,-0.35,-0.1,-0.1,9.3,1.71,4.7,0.0,1.0,3.0
4879,68.954726,t,492.0,456.0,281.0,82.0,297.0,208.0,314.0,375.0,9.21,-3.28,-0.74,10.88,-117.81,-49.94,0.67,-0.34,-0.1,-0.1,14.66,2.37,4.44,0.0,1.0,3.0
4880,68.969788,t,511.0,498.0,314.0,80.0,302.0,215.0,322.0,388.0,9.23,-3.17,-0.87,-7.87,-78.94,-64.87,0.66,-0.34,-0.1,-0.1,4.73,-4.17,-3.48,0.0,1.0,3.0
4881,68.984821,t,511.0,511.0,353.0,75.0,294.0,226.0,324.0,383.0,9.2,-3.24,-0.94,-5.94,19.75,54.19,0.66,-0.35,-0.1,-0.1,2.98,1.14,-0.57,0.0,1.0,3.0
4882,68.999883,t,511.0,511.0,356.0,74.0,305.0,234.0,337.0,382.0,9.18,-3.33,-0.82,-4.87,82.56,60.38,0.67,-0.35,-0.1,-0.1,3.2,3.43,-1.19,0.0,1.0,3.0
4883,69.014915,t,511.0,511.0,346.0,73.0,323.0,244.0,354.0,387.0,9.15,-3.44,-0.65,-17.69,108.56,71.81,0.68,-0.35,-0.1,-0.1,3.24,1.12,-5.48,0.0,1.0,3.0
4884,69.029918,t,511.0,511.0,339.0,72.0,345.0,250.0,356.0,408.0,9.05,-3.73,-0.52,-30.56,-9.81,55.75,0.68,-0.37,-0.09,-0.09,1.71,-4.18,-2.72,0.0,1.0,3.0
4885,69.044952,t,511.0,511.0,285.0,70.0,348.0,237.0,338.0,402.0,9.01,-3.82,-0.59,-33.63,-28.31,56.19,0.68,-0.37,-0.09,-0.09,4.82,3.06,1.07,0.0,1.0,3.0
4886,69.06001499999999,t,511.0,511.0,262.0,73.0,350.0,226.0,328.0,396.0,8.97,-3.89,-0.66,-37.75,-26.37,51.31,0.68,-0.38,-0.09,-0.09,6.61,4.87,1.24,0.0,1.0,3.0
4887,69.074118,t,485.0,475.0,254.0,73.0,349.0,217.0,326.0,371.0,8.94,-3.94,-0.7,-26.25,-10.06,11.31,0.67,-0.38,-0.09,-0.09,5.36,5.59,0.56,0.0,1.0,3.0
4888,69.08924999999999,t,438.0,458.0,257.0,74.0,356.0,221.0,338.0,362.0,8.94,-3.93,-0.78,-26.75,-15.38,-14.94,0.67,-0.39,-0.09,-0.09,5.84,4.67,0.07,0.0,1.0,3.0
4889,69.104254,t,436.0,456.0,260.0,72.0,347.0,212.0,338.0,339.0,8.97,-3.87,-0.81,-7.44,-15.81,-46.94,0.67,-0.38,-0.1,-0.1,6.99,1.28,-0.55,0.0,1.0,3.0
4890,69.11936299999999,t,433.0,438.0,266.0,74.0,343.0,210.0,339.0,344.0,9.03,-3.72,-0.85,11.81,-0.56,-58.75,0.67,-0.38,-0.1,-0.1,3.48,-0.44,-0.25,0.0,1.0,3.0
4891,69.134562,t,461.0,470.0,284.0,76.0,349.0,222.0,346.0,377.0,9.06,-3.63,-0.85,16.37,5.81,-62.56,0.67,-0.37,-0.11,-0.11,2.57,-0.3,-0.65,0.0,1.0,3.0
4892,69.149649,t,482.0,494.0,290.0,77.0,344.0,219.0,327.0,380.0,9.14,-3.43,-0.8,21.06,6.69,-65.0,0.67,-0.37,-0.11,-0.11,1.43,-0.47,-0.67,0.0,1.0,3.0
4893,69.164681,t,495.0,510.0,302.0,74.0,346.0,224.0,324.0,389.0,9.22,-3.25,-0.75,34.5,8.13,-59.19,0.67,-0.36,-0.11,-0.11,0.8,-1.48,0.26,0.0,1.0,3.0
4894,69.179685,t,510.0,511.0,312.0,75.0,354.0,229.0,335.0,393.0,9.25,-3.17,-0.7,42.31,16.25,-52.13,0.67,-0.35,-0.12,-0.12,0.41,-1.44,0.27,0.0,1.0,3.0
4895,69.194709,t,508.0,511.0,317.0,77.0,358.0,230.0,341.0,389.0,9.27,-3.1,-0.64,47.0,21.69,-45.31,0.68,-0.34,-0.12,-0.12,-1.15,-0.07,0.0,0.0,1.0,3.0
4896,69.209721,t,504.0,511.0,316.0,79.0,366.0,230.0,344.0,382.0,9.32,-2.98,-0.52,45.81,23.31,-38.75,0.68,-0.34,-0.12,-0.12,-1.32,-0.21,-0.79,0.0,1.0,3.0
4897,69.22475299999999,t,498.0,511.0,314.0,74.0,375.0,231.0,348.0,382.0,9.34,-2.92,-0.46,45.81,23.31,-38.75,0.68,-0.32,-0.12,-0.12,-1.85,-0.53,-1.13,0.0,1.0,3.0
4898,69.239844,t,503.0,511.0,308.0,78.0,388.0,234.0,346.0,390.0,9.38,-2.8,-0.35,46.13,16.06,-36.88,0.69,-0.32,-0.12,-0.12,-2.17,-1.02,-1.39,0.0,1.0,3.0
4899,69.255873,t,506.0,511.0,314.0,69.0,390.0,245.0,338.0,394.0,9.42,-2.69,-0.26,46.63,12.81,-35.0,0.69,-0.31,-0.12,-0.12,-2.56,-1.23,-1.47,0.0,1.0,3.0
4900,69.268968,t,507.0,511.0,315.0,71.0,396.0,248.0,335.0,396.0,9.44,-2.64,-0.22,49.88,10.13,-32.94,0.69,-0.31,-0.12,-0.12,-3.41,-1.1,-0.64,0.0,1.0,3.0
4901,69.284972,t,511.0,511.0,317.0,72.0,408.0,249.0,334.0,398.0,9.45,-2.59,-0.18,51.69,7.37,-31.19,0.69,-0.3,-0.12,-0.12,-3.59,-1.22,-0.79,0.0,1.0,3.0
4902,69.299148,t,511.0,511.0,319.0,75.0,422.0,249.0,334.0,408.0,9.47,-2.51,-0.12,47.25,7.31,-25.5,0.69,-0.29,-0.12,-0.12,-4.08,-1.33,-0.57,0.0,1.0,3.0
4903,69.315178,t,511.0,511.0,319.0,74.0,433.0,255.0,336.0,421.0,9.49,-2.45,-0.07,31.94,5.06,-15.19,0.7,-0.29,-0.11,-0.11,-3.8,-1.99,-0.46,0.0,1.0,3.0
4904,69.329365,t,511.0,511.0,323.0,74.0,434.0,254.0,334.0,418.0,9.49,-2.43,-0.05,23.0,3.19,-8.94,0.7,-0.28,-0.11,-0.11,-3.59,-2.03,0.16,0.0,1.0,3.0
4905,69.34445099999999,t,511.0,511.0,322.0,80.0,435.0,249.0,333.0,418.0,9.49,-2.44,-0.04,2.87,1.0,4.06,0.7,-0.28,-0.11,-0.11,-3.23,-1.33,-0.16,0.0,1.0,3.0
4906,69.35956,t,511.0,511.0,309.0,75.0,430.0,242.0,334.0,410.0,9.49,-2.45,-0.04,-4.87,3.25,10.5,0.7,-0.28,-0.11,-0.11,-3.4,-0.97,-0.3,0.0,1.0,3.0
4907,69.374653,t,511.0,511.0,292.0,73.0,422.0,234.0,330.0,396.0,9.48,-2.48,-0.03,-20.12,10.94,20.69,0.7,-0.29,-0.11,-0.11,-3.19,-0.74,-0.77,0.0,1.0,3.0
4908,69.389713,t,484.0,499.0,264.0,76.0,415.0,228.0,322.0,372.0,9.45,-2.6,0.0,-36.44,20.56,26.81,0.7,-0.29,-0.11,-0.11,-2.95,-1.63,-1.4,0.0,1.0,3.0
4909,69.404741,t,482.0,478.0,256.0,78.0,426.0,229.0,315.0,370.0,9.44,-2.65,0.02,-36.81,24.75,31.31,0.7,-0.3,-0.11,-0.11,-3.12,-1.45,-0.55,0.0,1.0,3.0
4910,69.419772,t,474.0,470.0,250.0,80.0,423.0,228.0,307.0,363.0,9.42,-2.7,0.05,-36.19,26.06,35.5,0.7,-0.3,-0.11,-0.11,-2.48,-1.12,-1.06,0.0,1.0,3.0
4911,69.434776,t,471.0,496.0,244.0,80.0,431.0,225.0,308.0,357.0,9.4,-2.77,0.08,-37.0,28.69,38.75,0.7,-0.31,-0.11,-0.11,-2.13,-2.87,-1.75,0.0,1.0,3.0
4912,69.449805,t,486.0,511.0,202.0,82.0,454.0,234.0,302.0,362.0,9.36,-2.91,0.14,-45.56,31.44,47.38,0.7,-0.32,-0.11,-0.11,-1.51,-3.95,-0.66,0.0,1.0,3.0
4913,69.464837,t,490.0,511.0,183.0,81.0,479.0,247.0,302.0,382.0,9.3,-3.08,0.2,-48.88,34.19,55.88,0.71,-0.32,-0.12,-0.12,-1.27,-4.27,-0.8,0.0,1.0,3.0
4914,69.47987,t,497.0,483.0,160.0,77.0,463.0,234.0,278.0,368.0,9.26,-3.19,0.24,-48.63,39.63,68.44,0.71,-0.33,-0.11,-0.11,-1.06,-4.39,-0.77,0.0,1.0,3.0
4915,69.494933,t,478.0,450.0,123.0,80.0,457.0,237.0,264.0,351.0,9.15,-3.49,0.31,-45.88,38.06,101.75,0.71,-0.34,-0.11,-0.11,1.7,-4.86,0.89,0.0,1.0,3.0
4916,69.508986,t,457.0,433.0,114.0,79.0,428.0,232.0,250.0,324.0,9.08,-3.67,0.33,-49.75,34.5,118.31,0.71,-0.36,-0.1,-0.1,5.33,-5.11,1.5,0.0,1.0,3.0
4917,69.52499,t,424.0,392.0,110.0,80.0,413.0,229.0,232.0,310.0,8.89,-4.11,0.33,-55.81,17.25,146.31,0.71,-0.37,-0.1,-0.1,9.09,-4.41,1.18,0.0,1.0,3.0
4918,69.539099,t,379.0,337.0,109.0,80.0,378.0,226.0,226.0,286.0,8.77,-4.36,0.3,-47.31,1.25,158.87,0.71,-0.4,-0.08,-0.08,10.58,0.1,1.25,0.0,1.0,3.0
4919,69.555468,t,310.0,280.0,105.0,80.0,348.0,202.0,222.0,249.0,8.49,-4.89,0.21,-41.13,-4.94,185.06,0.71,-0.41,-0.07,-0.07,9.38,0.93,0.8,0.0,1.0,3.0
4920,69.569571,t,289.0,272.0,96.0,79.0,319.0,198.0,222.0,239.0,8.32,-5.17,0.18,-40.88,0.0,188.44,0.71,-0.43,-0.05,-0.05,8.66,2.03,0.32,0.0,1.0,3.0
4921,69.584629,t,270.0,261.0,101.0,78.0,314.0,199.0,229.0,235.0,7.98,-5.69,0.1,-45.69,2.31,181.12,0.71,-0.44,-0.04,-0.04,8.5,2.33,0.29,0.0,1.0,3.0
4922,69.599683,t,266.0,257.0,108.0,70.0,313.0,201.0,237.0,240.0,7.81,-5.92,0.07,-43.94,9.44,168.44,0.71,-0.45,-0.04,-0.04,7.36,3.25,-0.93,0.0,1.0,3.0
4923,69.614726,t,293.0,251.0,113.0,69.0,324.0,206.0,254.0,246.0,7.53,-6.28,0.0,-42.5,0.19,120.44,0.7,-0.48,-0.02,-0.02,2.57,2.53,-0.97,0.0,1.0,3.0
4924,69.629786,t,306.0,248.0,108.0,68.0,334.0,211.0,252.0,249.0,7.43,-6.39,-0.06,-43.56,-15.5,91.19,0.7,-0.48,-0.02,-0.02,2.98,1.03,0.78,0.0,1.0,3.0
4925,69.644848,t,309.0,243.0,109.0,68.0,340.0,217.0,250.0,256.0,7.35,-6.48,-0.13,-17.5,-27.06,49.19,0.7,-0.49,-0.01,-0.01,3.18,0.93,1.33,0.0,1.0,3.0
4926,69.659904,t,325.0,239.0,106.0,68.0,342.0,217.0,244.0,262.0,7.26,-6.58,-0.22,16.62,-24.25,13.88,0.7,-0.49,-0.01,-0.01,2.83,0.92,2.34,0.0,1.0,3.0
4927,69.674935,t,330.0,248.0,110.0,68.0,340.0,215.0,243.0,270.0,7.24,-6.6,-0.22,30.75,-21.44,3.06,0.7,-0.48,-0.0,-0.0,1.16,1.43,2.8,0.0,1.0,3.0
4928,69.688965,t,303.0,236.0,114.0,69.0,334.0,219.0,234.0,263.0,7.24,-6.6,-0.2,42.5,-17.75,-4.12,0.7,-0.48,-0.0,-0.0,0.58,2.13,2.55,0.0,1.0,3.0
4929,69.704958,t,287.0,227.0,119.0,68.0,319.0,201.0,228.0,255.0,7.26,-6.58,-0.15,55.38,-12.19,-13.25,0.7,-0.48,0.0,0.0,-1.02,5.16,1.9,0.0,1.0,3.0
4930,69.719101,t,279.0,228.0,119.0,68.0,308.0,198.0,225.0,246.0,7.28,-6.56,-0.08,80.69,0.31,-36.5,0.71,-0.47,0.0,0.0,-1.02,5.16,1.9,0.0,1.0,3.0
4931,69.734165,t,277.0,242.0,109.0,69.0,294.0,201.0,238.0,250.0,7.45,-6.37,0.2,75.19,9.69,-61.31,0.71,-0.45,0.0,0.0,-2.03,6.01,0.02,0.0,1.0,3.0
4932,69.749346,t,296.0,258.0,100.0,68.0,283.0,196.0,226.0,244.0,7.53,-6.27,0.29,61.31,13.94,-74.81,0.72,-0.44,0.0,0.0,-2.56,5.87,-0.52,0.0,1.0,3.0
4933,69.764379,t,310.0,284.0,100.0,68.0,279.0,195.0,222.0,245.0,7.62,-6.15,0.36,52.94,13.94,-86.87,0.72,-0.43,-0.01,-0.01,-3.07,5.41,0.36,0.0,1.0,3.0
4934,69.779562,t,326.0,265.0,93.0,68.0,268.0,186.0,204.0,248.0,7.95,-5.71,0.47,10.44,3.37,-117.06,0.72,-0.42,-0.02,-0.02,-2.6,4.0,1.19,0.0,1.0,3.0
4935,69.794684,t,328.0,242.0,93.0,69.0,264.0,186.0,202.0,251.0,8.07,-5.54,0.47,3.37,-1.81,-123.31,0.72,-0.41,-0.03,-0.03,-2.25,3.72,1.11,0.0,1.0,3.0
4936,69.809743,t,333.0,227.0,95.0,68.0,263.0,185.0,200.0,255.0,8.19,-5.36,0.45,-3.56,-7.31,-128.69,0.72,-0.41,-0.03,-0.03,-1.88,3.39,0.87,0.0,1.0,3.0
4937,69.824777,t,329.0,208.0,95.0,69.0,262.0,184.0,198.0,257.0,8.31,-4.99,0.36,-27.31,-21.56,-131.12,0.72,-0.39,-0.06,-0.06,-0.65,0.51,0.53,0.0,1.0,3.0
4938,69.839809,t,310.0,222.0,99.0,68.0,252.0,168.0,202.0,252.0,8.54,-4.8,0.3,-29.56,-25.5,-128.31,0.71,-0.39,-0.07,-0.07,-0.6,-0.12,0.66,0.0,1.0,3.0
4939,69.854872,t,306.0,222.0,100.0,74.0,246.0,164.0,204.0,245.0,8.74,-4.43,0.18,-27.75,-24.06,-125.31,0.71,-0.38,-0.08,-0.08,-0.66,-0.4,0.66,0.0,1.0,3.0
4940,69.869935,t,292.0,236.0,102.0,74.0,238.0,165.0,206.0,244.0,8.83,-4.24,0.13,-24.62,-22.37,-121.94,0.71,-0.38,-0.08,-0.08,-0.54,-0.77,0.32,0.0,1.0,3.0
4941,69.884938,t,299.0,262.0,105.0,77.0,225.0,151.0,210.0,247.0,8.99,-3.9,0.03,-20.44,-21.81,-106.0,0.7,-0.37,-0.11,-0.11,-1.06,-1.2,-0.03,0.0,1.0,3.0
4942,69.899942,t,310.0,280.0,106.0,77.0,229.0,159.0,217.0,257.0,9.05,-3.76,0.0,-15.06,-18.81,-96.25,0.7,-0.36,-0.11,-0.11,-1.38,-2.19,-0.79,0.0,1.0,3.0
4943,69.914943,t,328.0,286.0,106.0,76.0,234.0,159.0,214.0,253.0,9.16,-3.49,-0.07,4.0,-20.12,-79.0,0.7,-0.36,-0.11,-0.11,-1.63,-2.71,-0.71,0.0,1.0,3.0
4944,69.928975,t,358.0,312.0,106.0,77.0,242.0,170.0,220.0,266.0,9.23,-3.28,-0.09,23.87,-14.44,-64.62,0.69,-0.35,-0.12,-0.12,-1.95,-2.98,-0.46,0.0,1.0,3.0
4945,69.945064,t,370.0,318.0,106.0,74.0,244.0,174.0,226.0,274.0,9.27,-3.19,-0.09,31.37,-10.13,-58.38,0.69,-0.34,-0.12,-0.12,-2.07,-2.66,-0.18,0.0,1.0,3.0
4946,69.959067,t,383.0,328.0,104.0,74.0,248.0,188.0,232.0,274.0,9.3,-3.1,-0.09,34.5,-9.06,-52.06,0.69,-0.33,-0.12,-0.12,-2.1,-2.31,0.08,0.0,1.0,3.0
4947,69.97418,t,398.0,359.0,104.0,74.0,251.0,195.0,239.0,283.0,9.34,-2.96,-0.1,13.75,-9.94,-41.81,0.69,-0.33,-0.12,-0.12,-2.29,-2.13,-0.11,0.0,1.0,3.0
4948,69.989271,t,414.0,372.0,106.0,72.0,254.0,210.0,256.0,297.0,9.38,-2.84,-0.14,-7.06,-9.25,-35.44,0.69,-0.33,-0.13,-0.13,-2.42,-1.79,-0.21,0.0,1.0,3.0
4949,70.004469,t,413.0,376.0,117.0,70.0,258.0,212.0,265.0,299.0,9.39,-2.8,-0.15,-4.87,-10.06,-30.31,0.69,-0.33,-0.13,-0.13,-2.71,-1.05,0.31,0.0,1.0,3.0
4950,70.019556,t,419.0,395.0,126.0,73.0,266.0,207.0,278.0,319.0,9.4,-2.76,-0.18,1.62,-15.13,-22.62,0.69,-0.32,-0.13,-0.13,-2.56,1.03,1.08,0.0,1.0,3.0
4951,70.034653,t,427.0,417.0,170.0,76.0,289.0,213.0,308.0,367.0,9.41,-2.73,-0.21,1.56,-51.38,-15.0,0.68,-0.32,-0.13,-0.13,3.16,-1.2,-2.16,0.0,1.0,3.0
4952,70.049686,t,492.0,511.0,248.0,80.0,315.0,214.0,338.0,401.0,9.42,-2.65,-0.46,12.88,-73.19,-23.12,0.68,-0.32,-0.13,-0.13,6.51,-1.42,-2.94,0.0,1.0,3.0
4953,70.06469,t,506.0,511.0,296.0,78.0,319.0,228.0,348.0,410.0,9.43,-2.59,-0.57,64.87,-85.62,-38.13,0.67,-0.32,-0.12,-0.12,7.51,-0.02,0.03,0.0,1.0,3.0
4954,70.079748,t,511.0,511.0,318.0,77.0,324.0,229.0,346.0,415.0,9.44,-2.53,-0.67,62.25,-76.25,-44.63,0.67,-0.31,-0.12,-0.12,4.48,-1.81,3.01,0.0,1.0,3.0
4955,70.094858,t,511.0,511.0,351.0,78.0,318.0,224.0,360.0,410.0,9.46,-2.45,-0.76,-44.75,-4.56,-8.94,0.67,-0.31,-0.12,-0.12,-1.37,0.39,-6.52,0.0,1.0,3.0
4956,70.109861,t,511.0,511.0,383.0,77.0,324.0,220.0,370.0,415.0,9.43,-2.58,-0.74,18.87,3.87,49.13,0.67,-0.32,-0.12,-0.12,0.95,2.43,-4.2,0.0,1.0,3.0
4957,70.124934,t,511.0,511.0,408.0,76.0,341.0,227.0,383.0,432.0,9.4,-2.67,-0.75,16.75,-12.44,53.25,0.67,-0.32,-0.12,-0.12,7.0,1.82,1.41,0.0,1.0,3.0
4958,70.138965,t,511.0,511.0,393.0,77.0,378.0,234.0,377.0,470.0,9.36,-2.78,-0.86,-8.13,-30.56,22.25,0.67,-0.32,-0.11,-0.11,9.22,-2.83,-1.48,0.0,1.0,3.0
4959,70.154057,t,511.0,511.0,372.0,76.0,391.0,235.0,362.0,473.0,9.35,-2.79,-0.88,-26.75,-7.44,11.56,0.67,-0.33,-0.11,-0.11,7.23,-2.64,0.82,0.0,1.0,3.0
4960,70.169145,t,511.0,511.0,354.0,73.0,398.0,236.0,355.0,469.0,9.33,-2.87,-0.85,-29.69,29.06,35.56,0.67,-0.33,-0.11,-0.11,7.08,-1.55,0.9,0.0,1.0,3.0
4961,70.184225,t,511.0,511.0,348.0,77.0,397.0,239.0,350.0,440.0,9.32,-2.93,-0.77,-8.5,49.69,38.44,0.67,-0.33,-0.11,-0.11,5.88,-0.38,-0.02,0.0,1.0,3.0
4962,70.199347,t,511.0,511.0,358.0,76.0,382.0,236.0,368.0,412.0,9.3,-3.05,-0.57,34.38,57.06,30.81,0.68,-0.33,-0.11,-0.11,3.3,3.33,-0.93,0.0,1.0,3.0
4963,70.214452,t,511.0,511.0,363.0,68.0,370.0,240.0,370.0,393.0,9.29,-3.09,-0.46,39.63,54.19,21.5,0.69,-0.33,-0.11,-0.11,2.17,4.56,-2.14,0.0,1.0,3.0
4964,70.229581,t,511.0,511.0,369.0,68.0,366.0,242.0,369.0,393.0,9.29,-3.1,-0.31,22.12,30.87,-4.94,0.69,-0.33,-0.11,-0.11,1.85,4.0,-3.29,0.0,1.0,3.0
4965,70.24467,t,511.0,511.0,370.0,68.0,362.0,242.0,368.0,406.0,9.3,-3.07,-0.29,1.31,13.25,-18.5,0.69,-0.33,-0.11,-0.11,1.76,3.16,-2.72,0.0,1.0,3.0
4966,70.259703,t,511.0,511.0,369.0,70.0,368.0,253.0,368.0,424.0,9.32,-3.02,-0.3,-21.5,-3.75,-30.25,0.69,-0.33,-0.11,-0.11,1.69,2.27,-2.54,0.0,1.0,3.0
4967,70.274736,t,511.0,511.0,342.0,69.0,382.0,247.0,369.0,444.0,9.36,-2.89,-0.39,-41.44,-17.0,-39.19,0.68,-0.33,-0.12,-0.12,1.04,-0.1,-1.57,0.0,1.0,3.0
4968,70.289765,t,511.0,511.0,345.0,73.0,386.0,242.0,375.0,442.0,9.37,-2.82,-0.43,-35.0,-12.25,-38.88,0.68,-0.33,-0.12,-0.12,0.11,-1.42,-1.21,0.0,1.0,3.0
4969,70.30479700000001,t,511.0,504.0,339.0,69.0,380.0,230.0,360.0,417.0,9.39,-2.76,-0.45,-4.81,-0.56,-35.0,0.68,-0.32,-0.13,-0.13,-1.55,-1.47,-0.44,0.0,1.0,3.0
4970,70.3198,t,511.0,475.0,342.0,70.0,382.0,229.0,364.0,410.0,9.44,-2.61,-0.42,20.19,6.25,-28.44,0.68,-0.32,-0.13,-0.13,-1.74,-1.16,-0.34,0.0,1.0,3.0
4971,70.334804,t,511.0,463.0,339.0,69.0,384.0,228.0,362.0,409.0,9.45,-2.57,-0.4,29.75,9.31,-24.37,0.68,-0.32,-0.13,-0.13,-1.87,-1.11,-0.36,0.0,1.0,3.0
4972,70.349866,t,511.0,476.0,340.0,72.0,386.0,229.0,358.0,407.0,9.46,-2.54,-0.36,38.0,13.25,-19.87,0.68,-0.31,-0.13,-0.13,-2.39,-1.23,-0.23,0.0,1.0,3.0
4973,70.364898,t,511.0,511.0,338.0,75.0,386.0,248.0,353.0,412.0,9.48,-2.49,-0.21,46.31,19.5,-6.56,0.69,-0.3,-0.12,-0.12,-3.43,-1.32,1.11,0.0,1.0,3.0
4974,70.378942,t,511.0,511.0,341.0,75.0,389.0,255.0,359.0,412.0,9.48,-2.49,-0.15,41.56,22.75,-1.25,0.69,-0.3,-0.12,-0.12,-3.78,-0.7,0.78,0.0,1.0,3.0
4975,70.394981,t,511.0,511.0,334.0,78.0,399.0,258.0,368.0,419.0,9.48,-2.5,-0.09,38.06,28.0,4.94,0.7,-0.29,-0.12,-0.12,-4.44,-0.06,0.46,0.0,1.0,3.0
4976,70.409069,t,511.0,511.0,319.0,78.0,392.0,249.0,356.0,408.0,9.46,-2.54,0.04,24.0,37.06,14.63,0.7,-0.29,-0.12,-0.12,-5.21,1.44,-0.08,0.0,1.0,3.0
4977,70.424104,t,511.0,511.0,304.0,78.0,402.0,251.0,347.0,406.0,9.46,-2.57,0.11,9.06,38.88,15.63,0.7,-0.29,-0.12,-0.12,-4.96,0.52,-1.45,0.0,1.0,3.0
4978,70.439162,t,511.0,511.0,283.0,81.0,430.0,256.0,330.0,400.0,9.44,-2.61,0.2,-23.56,29.87,10.81,0.7,-0.3,-0.12,-0.12,-4.36,-1.09,-1.87,0.0,1.0,3.0
4979,70.454216,t,511.0,511.0,279.0,81.0,437.0,253.0,319.0,390.0,9.44,-2.63,0.22,-34.38,19.75,10.81,0.7,-0.3,-0.12,-0.12,-3.08,-3.8,-0.45,0.0,1.0,3.0
4980,70.470411,t,511.0,511.0,273.0,81.0,460.0,249.0,313.0,391.0,9.43,-2.65,0.21,-40.0,4.5,23.56,0.7,-0.31,-0.12,-0.12,-1.63,-3.53,-0.44,0.0,1.0,3.0
4981,70.485566,t,511.0,511.0,268.0,80.0,451.0,247.0,306.0,394.0,9.4,-2.75,0.2,-37.19,9.75,34.44,0.7,-0.31,-0.13,-0.13,-1.59,-2.83,-0.94,0.0,1.0,3.0
4982,70.499679,t,511.0,511.0,247.0,80.0,458.0,238.0,305.0,388.0,9.35,-2.92,0.23,-40.88,24.56,55.06,0.71,-0.33,-0.12,-0.12,-3.03,-2.04,-0.37,0.0,1.0,3.0
4983,70.514727,t,511.0,511.0,222.0,78.0,486.0,240.0,302.0,383.0,9.28,-3.14,0.28,-51.56,32.81,70.5,0.71,-0.33,-0.12,-0.12,-2.94,-1.84,0.09,0.0,1.0,3.0
4984,70.529781,t,511.0,511.0,199.0,73.0,488.0,240.0,296.0,382.0,9.24,-3.26,0.31,-58.94,37.94,75.31,0.71,-0.34,-0.12,-0.12,-2.14,-2.94,-0.87,0.0,1.0,3.0
4985,70.544785,t,489.0,511.0,182.0,74.0,492.0,238.0,290.0,361.0,9.19,-3.39,0.34,-57.25,42.56,81.62,0.71,-0.35,-0.12,-0.12,-1.62,-3.63,-0.54,0.0,1.0,3.0
4986,70.559824,t,470.0,511.0,158.0,74.0,470.0,232.0,278.0,346.0,9.13,-3.53,0.38,-59.5,45.94,88.37,0.71,-0.37,-0.12,-0.12,-1.2,-4.03,0.55,0.0,1.0,3.0
4987,70.574828,t,468.0,454.0,127.0,76.0,446.0,235.0,252.0,335.0,8.91,-4.06,0.44,-80.19,38.06,125.69,0.71,-0.39,-0.12,-0.12,2.38,-5.69,0.12,0.0,1.0,3.0
4988,70.589946,t,437.0,425.0,120.0,74.0,422.0,235.0,240.0,326.0,8.8,-4.29,0.41,-82.06,21.87,144.56,0.71,-0.4,-0.11,-0.11,4.1,-5.88,0.4,0.0,1.0,3.0
4989,70.604947,t,387.0,382.0,116.0,79.0,376.0,230.0,220.0,290.0,8.68,-4.54,0.36,-74.31,5.75,161.81,0.71,-0.42,-0.1,-0.1,10.41,-5.2,0.62,0.0,1.0,3.0
4990,70.619953,t,348.0,331.0,112.0,79.0,345.0,210.0,209.0,274.0,8.37,-5.08,0.27,-32.13,-8.56,189.56,0.71,-0.43,-0.09,-0.09,11.16,-2.71,0.6,0.0,1.0,3.0
4991,70.634986,t,304.0,291.0,111.0,79.0,322.0,199.0,206.0,248.0,8.19,-5.37,0.25,-10.13,-2.87,203.0,0.71,-0.44,-0.08,-0.06,8.05,3.0,-0.05,0.0,1.0,3.0
4992,70.649045,t,261.0,270.0,102.0,76.0,300.0,199.0,226.0,237.0,7.78,-5.95,0.28,11.25,3.87,207.37,0.72,-0.46,-0.05,-0.05,8.16,4.28,-0.34,0.0,1.0,3.0
4993,70.664233,t,255.0,266.0,112.0,69.0,303.0,206.0,248.0,234.0,7.58,-6.2,0.3,2.37,6.06,167.31,0.72,-0.48,-0.03,-0.03,5.36,6.84,-0.94,0.0,1.0,3.0
4994,70.679334,t,253.0,263.0,113.0,69.0,303.0,209.0,266.0,234.0,7.25,-6.59,0.28,-14.94,-9.44,135.0,0.72,-0.49,-0.02,-0.02,2.54,4.95,-1.73,0.0,1.0,3.0
4995,70.694733,t,280.0,256.0,112.0,69.0,312.0,212.0,267.0,248.0,7.13,-6.71,0.21,-26.75,-27.44,101.19,0.71,-0.49,-0.02,-0.02,2.18,3.3,-1.51,0.0,1.0,3.0
4996,70.709737,t,323.0,248.0,104.0,69.0,339.0,228.0,272.0,264.0,7.05,-6.81,0.14,-27.81,-35.5,73.44,0.71,-0.5,-0.01,-0.01,1.48,2.17,-1.36,0.0,1.0,3.0
4997,70.72474,t,356.0,238.0,106.0,69.0,348.0,244.0,268.0,290.0,6.92,-6.94,0.01,24.94,-36.75,23.44,0.71,-0.5,-0.0,-0.0,1.85,1.34,1.61,0.0,1.0,3.0
4998,70.739782,t,358.0,238.0,105.0,69.0,348.0,250.0,265.0,294.0,6.91,-6.95,0.03,45.19,-33.38,11.44,0.71,-0.5,0.0,0.0,2.37,1.48,1.9,0.0,1.0,3.0
4999,70.754786,t,350.0,242.0,106.0,68.0,344.0,234.0,248.0,274.0,6.9,-6.95,0.07,66.06,-27.62,1.62,0.71,-0.49,0.01,0.01,2.33,2.48,2.68,0.0,1.0,3.0
5000,70.769815,t,312.0,237.0,108.0,69.0,333.0,228.0,241.0,270.0,6.92,-6.94,0.14,80.81,-3.56,-49.56,0.72,-0.48,0.01,0.01,2.55,4.65,2.41,0.0,1.0,3.0
5001,70.78487,t,304.0,232.0,103.0,69.0,314.0,208.0,229.0,260.0,7.09,-6.75,0.4,68.19,0.5,-64.25,0.72,-0.47,0.01,0.01,0.93,5.64,1.37,0.0,1.0,3.0
5002,70.798902,t,312.0,232.0,105.0,69.0,306.0,204.0,231.0,255.0,7.18,-6.65,0.46,48.13,1.5,-78.69,0.72,-0.46,0.01,0.01,0.0,5.92,0.23,0.0,1.0,3.0
5003,70.81495699999999,t,313.0,240.0,99.0,69.0,301.0,200.0,232.0,264.0,7.29,-6.53,0.49,30.25,0.13,-92.06,0.72,-0.46,0.01,0.01,-0.99,6.05,0.21,0.0,1.0,3.0
5004,70.829019,t,314.0,228.0,98.0,68.0,280.0,187.0,214.0,260.0,7.53,-6.25,0.5,10.19,-11.5,-117.0,0.72,-0.44,-0.01,-0.01,-1.73,5.19,1.92,0.0,1.0,3.0
5005,70.844157,t,315.0,207.0,98.0,68.0,274.0,184.0,210.0,260.0,7.67,-6.08,0.48,-11.44,-11.75,-139.37,0.72,-0.43,-0.02,-0.02,-1.18,3.51,2.43,0.0,1.0,3.0
5006,70.859274,t,301.0,191.0,98.0,68.0,274.0,180.0,207.0,257.0,7.96,-5.7,0.42,-24.0,-8.13,-147.06,0.72,-0.43,-0.03,-0.03,-0.37,1.17,1.27,0.0,1.0,3.0
5007,70.874364,t,293.0,194.0,93.0,68.0,271.0,178.0,204.0,257.0,8.25,-5.28,0.35,-22.19,-8.0,-149.19,0.72,-0.42,-0.05,-0.05,0.55,-1.46,0.96,0.0,1.0,3.0
5008,70.889462,t,286.0,202.0,98.0,68.0,268.0,180.0,205.0,254.0,8.37,-5.08,0.33,-9.19,-10.0,-143.94,0.72,-0.41,-0.06,-0.06,0.84,-2.45,0.69,0.0,1.0,3.0
5009,70.904535,t,284.0,215.0,94.0,69.0,264.0,188.0,209.0,257.0,8.49,-4.88,0.32,7.87,-11.63,-135.44,0.71,-0.4,-0.08,-0.08,0.08,-1.27,0.19,0.0,1.0,3.0
5010,70.919619,t,297.0,218.0,94.0,69.0,246.0,190.0,210.0,257.0,8.68,-4.54,0.33,25.56,-7.5,-108.0,0.71,-0.39,-0.08,-0.08,-0.3,-0.8,0.1,0.0,1.0,3.0
5011,70.93469400000001,t,326.0,265.0,92.0,69.0,234.0,188.0,216.0,260.0,8.82,-4.26,0.35,14.75,-4.75,-89.06,0.71,-0.38,-0.09,-0.09,-1.68,0.48,-1.22,0.0,1.0,3.0
5012,70.94975,t,340.0,285.0,91.0,69.0,227.0,189.0,210.0,254.0,8.88,-4.13,0.34,5.37,-8.81,-85.81,0.71,-0.37,-0.1,-0.1,-2.3,0.74,-1.28,0.0,1.0,3.0
5013,70.964812,t,348.0,302.0,92.0,68.0,236.0,190.0,214.0,262.0,8.95,-3.99,0.31,-10.19,-19.19,-90.75,0.71,-0.36,-0.11,-0.11,-2.37,0.85,-0.81,0.0,1.0,3.0
5014,70.979816,t,357.0,319.0,92.0,69.0,239.0,191.0,222.0,268.0,9.07,-3.71,0.23,-17.44,-24.0,-90.94,0.71,-0.36,-0.11,-0.12,-2.14,-0.86,-0.33,0.0,1.0,3.0
5015,70.994849,t,362.0,317.0,93.0,68.0,245.0,191.0,231.0,271.0,9.18,-3.44,0.13,-19.37,-22.0,-84.81,0.7,-0.36,-0.12,-0.12,-2.0,-1.61,-0.08,0.0,1.0,3.0
5016,71.009882,t,362.0,324.0,92.0,74.0,252.0,196.0,236.0,271.0,9.22,-3.32,0.09,-17.5,-22.44,-75.75,0.7,-0.35,-0.13,-0.13,-1.89,-2.55,0.04,0.0,1.0,3.0
5017,71.024873,t,356.0,338.0,94.0,74.0,252.0,200.0,237.0,271.0,9.26,-3.21,0.05,-13.13,-21.37,-65.56,0.69,-0.35,-0.13,-0.13,-2.64,-3.18,-0.63,0.0,1.0,3.0
5018,71.039917,t,361.0,345.0,101.0,74.0,252.0,200.0,240.0,274.0,9.29,-3.12,-0.01,16.19,-10.63,-48.13,0.69,-0.34,-0.14,-0.14,-3.59,-2.51,-0.43,0.0,1.0,3.0
5019,71.054946,t,366.0,365.0,107.0,77.0,253.0,204.0,257.0,284.0,9.36,-2.89,0.0,32.63,-6.94,-44.81,0.69,-0.34,-0.14,-0.14,-4.12,-2.19,0.09,0.0,1.0,3.0
5020,71.07127,t,377.0,392.0,118.0,78.0,254.0,211.0,259.0,291.0,9.38,-2.82,0.0,44.13,-7.94,-40.38,0.69,-0.33,-0.14,-0.14,-4.52,-1.73,0.35,0.0,1.0,3.0
5021,71.084351,t,385.0,399.0,130.0,78.0,258.0,213.0,262.0,298.0,9.4,-2.77,0.0,50.31,-13.19,-35.38,0.69,-0.33,-0.14,-0.14,-4.55,-1.06,0.56,0.0,1.0,3.0
5022,71.099395,t,405.0,436.0,153.0,78.0,267.0,215.0,270.0,310.0,9.43,-2.68,-0.02,49.44,-27.31,-25.0,0.69,-0.32,-0.14,-0.14,-3.51,1.29,1.54,0.0,1.0,3.0
5023,71.114514,t,483.0,511.0,246.0,80.0,311.0,217.0,325.0,382.0,9.45,-2.61,-0.16,16.25,-59.44,-20.75,0.69,-0.32,-0.13,-0.13,-0.27,0.84,1.43,0.0,1.0,3.0
5024,71.129651,t,511.0,511.0,286.0,77.0,329.0,235.0,347.0,405.0,9.45,-2.57,-0.29,8.44,-82.5,-27.25,0.68,-0.32,-0.13,-0.13,6.48,-2.47,-0.38,0.0,1.0,3.0
5025,71.144675,t,511.0,511.0,324.0,78.0,337.0,242.0,347.0,429.0,9.47,-2.45,-0.52,37.69,-71.31,-36.88,0.68,-0.31,-0.13,-0.13,6.72,-1.75,-0.22,0.0,1.0,3.0
5026,71.15973,t,511.0,511.0,341.0,75.0,355.0,246.0,342.0,436.0,9.48,-2.42,-0.57,28.0,-38.38,-17.87,0.67,-0.31,-0.13,-0.13,0.79,-3.04,4.85,0.0,1.0,3.0
5027,71.174758,t,511.0,511.0,348.0,77.0,354.0,243.0,351.0,435.0,9.47,-2.45,-0.61,-20.06,-19.37,16.5,0.67,-0.31,-0.13,-0.13,-1.3,-0.31,-0.57,0.0,1.0,3.0
5028,71.18982199999999,t,511.0,511.0,400.0,73.0,354.0,239.0,376.0,425.0,9.4,-2.71,-0.57,1.12,24.44,57.13,0.67,-0.33,-0.13,-0.13,3.69,3.58,-0.85,0.0,1.0,3.0
5029,71.204825,t,511.0,511.0,438.0,77.0,368.0,248.0,387.0,435.0,9.38,-2.77,-0.57,12.19,1.31,38.5,0.68,-0.33,-0.12,-0.12,5.03,2.09,-1.92,0.0,1.0,3.0
5030,71.219828,t,511.0,511.0,444.0,75.0,392.0,248.0,398.0,446.0,9.38,-2.79,-0.58,5.0,-10.19,12.88,0.67,-0.33,-0.12,-0.12,5.42,0.4,-2.47,0.0,1.0,3.0
5031,71.234832,t,511.0,511.0,419.0,78.0,426.0,258.0,408.0,473.0,9.37,-2.79,-0.61,-17.87,-15.06,-0.06,0.67,-0.33,-0.12,-0.12,6.69,-1.87,-2.66,0.0,1.0,3.0
5032,71.249835,t,511.0,511.0,385.0,77.0,455.0,252.0,391.0,479.0,9.36,-2.82,-0.67,-31.31,-5.62,18.94,0.67,-0.34,-0.12,-0.12,8.0,-5.51,-1.53,0.0,1.0,3.0
5033,71.264839,t,511.0,511.0,369.0,73.0,480.0,254.0,372.0,485.0,9.35,-2.87,-0.66,-8.31,8.19,30.12,0.67,-0.34,-0.12,-0.12,3.91,-1.42,0.21,0.0,1.0,3.0
5034,71.279842,t,511.0,511.0,374.0,72.0,455.0,255.0,396.0,486.0,9.31,-3.0,-0.54,41.75,32.06,40.88,0.68,-0.34,-0.12,-0.12,2.98,1.69,-0.7,0.0,1.0,3.0
5035,71.294845,t,511.0,511.0,386.0,69.0,425.0,248.0,386.0,433.0,9.28,-3.11,-0.4,43.75,24.87,27.12,0.68,-0.34,-0.11,-0.11,2.53,6.58,0.28,0.0,1.0,3.0
5036,71.309903,t,511.0,511.0,382.0,70.0,407.0,250.0,390.0,418.0,9.28,-3.12,-0.35,27.37,20.62,6.56,0.68,-0.34,-0.11,-0.11,3.1,6.61,-1.52,0.0,1.0,3.0
5037,71.323966,t,511.0,511.0,390.0,70.0,402.0,258.0,386.0,426.0,9.31,-3.04,-0.33,-14.06,2.62,-34.13,0.68,-0.34,-0.12,-0.12,3.46,3.39,-2.04,0.0,1.0,3.0
5038,71.339033,t,511.0,511.0,378.0,70.0,398.0,257.0,378.0,435.0,9.33,-2.97,-0.37,-46.5,-22.06,-49.75,0.68,-0.34,-0.13,-0.13,1.96,-0.2,-1.3,0.0,1.0,3.0
5039,71.354075,t,511.0,511.0,380.0,78.0,392.0,252.0,374.0,447.0,9.38,-2.8,-0.49,-46.19,-28.62,-50.13,0.68,-0.34,-0.13,-0.13,1.53,-1.03,-0.69,0.0,1.0,3.0
5040,71.370162,t,511.0,511.0,362.0,79.0,394.0,240.0,371.0,450.0,9.4,-2.72,-0.55,-34.81,-26.62,-48.88,0.67,-0.34,-0.14,-0.14,1.22,-1.48,-0.34,0.0,1.0,3.0
5041,71.384214,t,511.0,511.0,356.0,78.0,392.0,234.0,368.0,450.0,9.42,-2.64,-0.59,-17.37,-18.81,-46.13,0.67,-0.34,-0.14,-0.14,0.82,-1.66,0.0,0.0,1.0,3.0
5042,71.399383,t,511.0,493.0,357.0,78.0,401.0,233.0,379.0,452.0,9.44,-2.57,-0.61,12.69,1.0,-38.63,0.67,-0.33,-0.15,-0.15,-0.56,-0.94,-0.31,0.0,1.0,3.0
5043,71.414455,t,511.0,509.0,360.0,79.0,396.0,230.0,370.0,425.0,9.49,-2.41,-0.52,29.62,22.44,-31.25,0.67,-0.33,-0.15,-0.15,-1.31,-1.77,-0.51,0.0,1.0,3.0
5044,71.429525,t,511.0,497.0,357.0,69.0,391.0,235.0,366.0,430.0,9.5,-2.37,-0.46,37.69,29.69,-27.06,0.68,-0.32,-0.15,-0.15,-1.81,-2.31,-0.45,0.0,1.0,3.0
5045,71.444608,t,511.0,511.0,359.0,72.0,401.0,252.0,380.0,456.0,9.51,-2.34,-0.38,48.31,32.88,-16.69,0.68,-0.31,-0.15,-0.15,-3.12,-2.65,0.25,0.0,1.0,3.0
5046,71.459683,t,511.0,511.0,359.0,73.0,402.0,258.0,377.0,446.0,9.52,-2.3,-0.24,48.19,30.5,-10.94,0.68,-0.31,-0.15,-0.15,-4.38,-1.67,-0.84,0.0,1.0,3.0
5047,71.474715,t,511.0,511.0,358.0,74.0,405.0,260.0,370.0,441.0,9.53,-2.29,-0.11,58.38,25.12,0.37,0.69,-0.3,-0.14,-0.14,-4.78,-0.98,-1.25,0.0,1.0,3.0
5048,71.489777,t,511.0,511.0,362.0,76.0,419.0,263.0,370.0,454.0,9.53,-2.3,-0.05,47.94,16.25,3.06,0.69,-0.3,-0.14,-0.14,-4.82,0.27,-1.11,0.0,1.0,3.0
5049,71.504779,t,511.0,511.0,364.0,75.0,424.0,262.0,369.0,450.0,9.53,-2.31,0.01,38.5,9.69,3.0,0.69,-0.3,-0.14,-0.14,-4.59,0.06,-1.23,0.0,1.0,3.0
5050,71.51981,t,511.0,511.0,354.0,76.0,429.0,265.0,361.0,440.0,9.52,-2.31,0.03,26.12,5.69,3.12,0.7,-0.3,-0.14,-0.14,-4.54,-0.04,-0.55,0.0,1.0,3.0
5051,71.534814,t,511.0,511.0,334.0,77.0,420.0,251.0,351.0,425.0,9.52,-2.33,0.04,-6.56,0.0,8.31,0.7,-0.3,-0.14,-0.14,-3.86,-1.16,0.39,0.0,1.0,3.0
5052,71.549817,t,511.0,511.0,330.0,77.0,426.0,243.0,348.0,426.0,9.51,-2.36,0.03,-18.31,0.0,14.19,0.69,-0.3,-0.14,-0.14,-3.1,-0.76,-1.38,0.0,1.0,3.0
5053,71.564821,t,511.0,511.0,317.0,80.0,428.0,239.0,343.0,407.0,9.49,-2.43,0.03,-22.75,7.62,25.62,0.7,-0.3,-0.14,-0.14,-3.27,0.35,-0.47,0.0,1.0,3.0
5054,71.579875,t,510.0,511.0,300.0,80.0,437.0,238.0,340.0,397.0,9.48,-2.48,0.04,-33.13,10.25,27.5,0.69,-0.31,-0.14,-0.14,-3.23,0.33,-0.56,0.0,1.0,3.0
5055,71.594908,t,511.0,511.0,287.0,80.0,457.0,238.0,332.0,391.0,9.47,-2.53,0.04,-39.88,11.25,28.87,0.69,-0.32,-0.14,-0.14,-2.93,-0.59,-1.34,0.0,1.0,3.0
5056,71.609937,t,511.0,511.0,264.0,82.0,474.0,241.0,316.0,395.0,9.42,-2.71,0.05,-39.69,14.13,42.38,0.69,-0.33,-0.14,-0.14,-1.19,-4.87,-0.75,0.0,1.0,3.0
5057,71.624969,t,511.0,511.0,250.0,82.0,479.0,242.0,306.0,401.0,9.39,-2.79,0.06,-28.5,18.75,53.31,0.69,-0.33,-0.14,-0.14,-0.49,-5.73,-1.13,0.0,1.0,3.0
5058,71.639038,t,511.0,511.0,244.0,81.0,491.0,245.0,306.0,403.0,9.37,-2.88,0.08,-28.5,18.75,53.31,0.7,-0.34,-0.14,-0.14,-0.18,-5.78,-0.81,0.0,1.0,3.0
5059,71.655103,t,511.0,511.0,224.0,74.0,492.0,248.0,303.0,402.0,9.33,-2.99,0.11,-17.62,26.56,67.06,0.7,-0.35,-0.14,-0.14,0.28,-4.6,0.44,0.0,1.0,3.0
5060,71.669254,t,511.0,511.0,185.0,74.0,478.0,246.0,291.0,383.0,9.17,-3.44,0.29,-16.31,49.25,106.69,0.71,-0.36,-0.13,-0.13,0.53,-2.33,0.54,0.0,1.0,3.0
5061,71.684335,t,507.0,511.0,164.0,74.0,478.0,244.0,284.0,362.0,9.1,-3.63,0.36,-30.62,58.81,118.0,0.71,-0.37,-0.13,-0.13,0.31,-3.64,0.31,0.0,1.0,3.0
5062,71.699638,t,511.0,511.0,147.0,74.0,467.0,244.0,271.0,360.0,9.01,-3.84,0.43,-49.19,62.88,132.12,0.71,-0.39,-0.12,-0.12,0.24,-4.47,0.22,0.0,1.0,3.0
5063,71.714688,t,510.0,480.0,133.0,75.0,465.0,256.0,268.0,359.0,8.78,-4.33,0.5,-76.87,50.19,165.62,0.72,-0.4,-0.12,-0.12,4.04,-4.66,0.83,0.0,1.0,3.0
5064,71.729769,t,398.0,393.0,114.0,80.0,394.0,240.0,230.0,310.0,8.47,-4.9,0.44,-77.56,15.75,192.37,0.72,-0.43,-0.1,-0.1,8.4,-2.59,1.44,0.0,1.0,3.0
5065,71.744774,t,360.0,356.0,117.0,80.0,361.0,222.0,219.0,282.0,8.3,-5.19,0.38,-70.06,0.06,195.0,0.71,-0.44,-0.09,-0.09,9.55,-1.57,0.91,0.0,1.0,3.0
5066,71.759819,t,314.0,308.0,114.0,79.0,346.0,205.0,217.0,262.0,8.12,-5.47,0.31,-60.5,-9.31,197.0,0.71,-0.47,-0.07,-0.07,8.88,0.81,-0.6,0.0,1.0,3.0
5067,71.774862,t,286.0,278.0,113.0,78.0,337.0,198.0,220.0,232.0,7.93,-5.75,0.24,-48.06,-18.56,200.62,0.71,-0.48,-0.06,-0.06,8.54,4.85,-0.29,0.0,1.0,3.0
5068,71.789895,t,249.0,250.0,119.0,69.0,334.0,191.0,236.0,222.0,7.33,-6.51,0.08,-34.88,6.69,177.0,0.71,-0.5,-0.04,-0.04,5.68,6.09,-1.15,0.0,1.0,3.0
5069,71.804928,t,249.0,244.0,121.0,70.0,344.0,198.0,248.0,227.0,7.16,-6.69,0.05,-40.38,9.13,150.56,0.71,-0.51,-0.04,-0.04,3.78,4.43,-1.87,0.0,1.0,3.0
5070,71.818957,t,264.0,231.0,114.0,69.0,339.0,204.0,248.0,226.0,7.02,-6.84,-0.01,-51.44,-8.25,120.31,0.7,-0.53,-0.03,-0.03,3.42,3.19,-2.27,0.0,1.0,3.0
5071,71.834976,t,305.0,219.0,114.0,68.0,343.0,211.0,243.0,246.0,6.83,-7.02,-0.2,-45.5,-31.12,65.44,0.7,-0.53,-0.02,-0.02,1.36,1.65,0.91,0.0,1.0,3.0
5072,71.849081,t,316.0,209.0,110.0,68.0,347.0,220.0,244.0,264.0,6.75,-7.1,-0.35,-10.63,-42.0,20.06,0.69,-0.54,-0.02,-0.02,1.76,1.12,1.68,0.0,1.0,3.0
5073,71.864149,t,318.0,205.0,109.0,69.0,350.0,223.0,236.0,272.0,6.74,-7.1,-0.38,11.13,-41.19,1.56,0.69,-0.54,-0.02,-0.02,2.73,0.57,2.7,0.0,1.0,3.0
5074,71.879242,t,297.0,210.0,109.0,68.0,334.0,218.0,224.0,266.0,6.79,-7.05,-0.33,56.06,-19.62,-29.12,0.69,-0.53,-0.02,-0.02,3.15,2.11,2.98,0.0,1.0,3.0
5075,71.894334,t,278.0,221.0,106.0,69.0,326.0,212.0,217.0,262.0,6.85,-7.0,-0.25,75.62,-3.87,-48.31,0.7,-0.52,-0.02,-0.02,2.72,2.94,2.77,0.0,1.0,3.0
5076,71.909368,t,282.0,232.0,102.0,68.0,317.0,206.0,222.0,253.0,7.03,-6.83,-0.02,78.69,17.5,-81.12,0.71,-0.51,-0.02,-0.02,0.17,4.83,1.29,0.0,1.0,3.0
5077,71.924401,t,296.0,270.0,99.0,68.0,296.0,201.0,224.0,250.0,7.14,-6.71,0.08,69.87,21.5,-95.62,0.71,-0.5,-0.03,-0.03,-0.54,5.22,0.28,0.0,1.0,3.0
5078,71.939461,t,317.0,274.0,94.0,69.0,287.0,198.0,223.0,248.0,7.26,-6.58,0.18,50.69,23.37,-113.31,0.72,-0.48,-0.04,-0.04,-3.11,6.72,0.92,0.0,1.0,3.0
5079,71.954516,t,325.0,267.0,96.0,70.0,272.0,188.0,210.0,251.0,7.52,-6.28,0.32,38.81,14.38,-120.0,0.72,-0.47,-0.05,-0.05,-3.42,5.99,1.46,0.0,1.0,3.0
5080,71.969596,t,328.0,225.0,96.0,70.0,267.0,182.0,204.0,253.0,7.65,-6.11,0.36,16.31,-1.62,-138.87,0.72,-0.46,-0.06,-0.06,-2.91,5.06,1.02,0.0,1.0,3.0
5081,71.984633,t,317.0,199.0,96.0,70.0,270.0,188.0,207.0,258.0,7.95,-5.72,0.36,-4.44,-9.5,-147.94,0.72,-0.46,-0.07,-0.07,-2.5,4.22,1.19,0.0,1.0,3.0
5082,71.999649,t,307.0,195.0,96.0,69.0,267.0,182.0,206.0,261.0,8.1,-5.51,0.32,-20.0,-14.19,-155.62,0.71,-0.45,-0.08,-0.08,-1.99,2.82,0.69,0.0,1.0,3.0
5083,72.014714,t,286.0,208.0,97.0,69.0,258.0,169.0,208.0,252.0,8.4,-5.05,0.22,-25.56,-19.75,-164.37,0.71,-0.43,-0.11,-0.11,-0.78,-1.03,0.82,0.0,1.0,3.0
5084,72.029717,t,280.0,220.0,96.0,68.0,249.0,166.0,204.0,244.0,8.54,-4.81,0.18,-10.69,-19.62,-163.75,0.7,-0.42,-0.12,-0.12,-0.92,-1.9,0.89,0.0,1.0,3.0
5085,72.044719,t,290.0,225.0,96.0,68.0,247.0,169.0,208.0,245.0,8.78,-4.35,0.12,3.62,-20.87,-149.25,0.7,-0.42,-0.12,-0.12,-0.55,-2.71,0.85,0.0,1.0,3.0
5086,72.059879,t,324.0,267.0,92.0,69.0,244.0,180.0,214.0,257.0,8.96,-3.96,0.09,10.25,-14.88,-118.81,0.7,-0.4,-0.14,-0.14,-2.09,-3.29,-0.32,0.0,1.0,3.0
5087,72.074898,t,336.0,289.0,95.0,69.0,245.0,180.0,218.0,258.0,9.03,-3.8,0.08,16.5,-12.38,-102.44,0.7,-0.4,-0.14,-0.14,-2.84,-3.37,-0.76,0.0,1.0,3.0
5088,72.088967,t,358.0,300.0,94.0,68.0,246.0,183.0,225.0,269.0,9.09,-3.66,0.08,27.19,-10.69,-88.94,0.69,-0.39,-0.15,-0.15,-3.31,-3.19,-1.08,0.0,1.0,3.0
5089,72.10453,t,380.0,328.0,95.0,70.0,250.0,195.0,231.0,279.0,9.14,-3.54,0.09,52.94,-12.44,-66.44,0.7,-0.37,-0.15,-0.15,-4.61,-0.89,-1.84,0.0,1.0,3.0
5090,72.119671,t,407.0,354.0,94.0,69.0,259.0,205.0,244.0,294.0,9.24,-3.27,0.13,60.94,-9.69,-47.06,0.7,-0.37,-0.15,-0.15,-5.67,0.53,-1.09,0.0,1.0,3.0
5091,72.134691,t,410.0,368.0,94.0,69.0,258.0,206.0,247.0,310.0,9.26,-3.2,0.15,59.88,-13.56,-40.25,0.7,-0.36,-0.15,-0.15,-5.76,0.67,-1.12,0.0,1.0,3.0
5092,72.149705,t,407.0,376.0,100.0,69.0,259.0,207.0,250.0,316.0,9.28,-3.14,0.15,59.75,-21.0,-36.44,0.7,-0.35,-0.14,-0.14,-5.55,0.75,-1.07,0.0,1.0,3.0
5093,72.16471,t,420.0,382.0,110.0,76.0,260.0,199.0,253.0,326.0,9.34,-2.97,0.07,65.0,-46.0,-37.06,0.7,-0.34,-0.14,-0.14,-2.82,1.96,2.29,0.0,1.0,3.0
5094,72.179712,t,442.0,400.0,119.0,75.0,276.0,204.0,274.0,340.0,9.36,-2.91,0.01,59.44,-55.5,-35.44,0.69,-0.34,-0.14,-0.14,-0.89,2.3,1.99,0.0,1.0,3.0
5095,72.194715,t,506.0,426.0,152.0,78.0,304.0,213.0,301.0,371.0,9.37,-2.86,-0.07,49.25,-71.0,-31.69,0.69,-0.33,-0.13,-0.13,2.04,2.24,1.58,0.0,1.0,3.0
5096,72.209719,t,511.0,475.0,204.0,80.0,327.0,217.0,323.0,411.0,9.38,-2.81,-0.23,9.94,-99.5,-28.19,0.68,-0.33,-0.13,-0.13,10.75,-2.68,-4.58,0.0,1.0,3.0
5097,72.224711,t,511.0,511.0,258.0,76.0,373.0,233.0,332.0,432.0,9.4,-2.69,-0.63,35.94,-68.5,-39.69,0.67,-0.32,-0.13,-0.13,4.9,-7.46,-0.98,0.0,1.0,3.0
5098,72.23972499999999,t,511.0,511.0,257.0,78.0,378.0,229.0,329.0,426.0,9.41,-2.63,-0.76,13.44,-26.12,-1.87,0.67,-0.32,-0.12,-0.12,-0.25,-5.06,8.21,0.0,1.0,3.0
5099,72.254746,t,511.0,511.0,266.0,77.0,371.0,225.0,333.0,426.0,9.39,-2.7,-0.78,-34.94,-3.37,47.81,0.67,-0.33,-0.12,-0.12,1.03,-2.84,0.29,0.0,1.0,3.0
5100,72.26979,t,511.0,511.0,322.0,80.0,369.0,217.0,360.0,407.0,9.3,-3.01,-0.69,-37.63,46.69,109.06,0.67,-0.34,-0.12,-0.12,3.3,2.49,1.15,0.0,1.0,3.0
5101,72.284849,t,511.0,511.0,345.0,80.0,373.0,215.0,373.0,396.0,9.25,-3.17,-0.65,-30.19,31.0,106.19,0.67,-0.36,-0.11,-0.11,6.09,2.21,0.2,0.0,1.0,3.0
5102,72.298933,t,504.0,511.0,338.0,80.0,363.0,210.0,362.0,390.0,9.21,-3.3,-0.65,-34.38,17.5,49.5,0.67,-0.36,-0.11,-0.11,7.47,3.01,-0.98,0.0,1.0,3.0
5103,72.314961,t,507.0,511.0,334.0,72.0,360.0,215.0,359.0,403.0,9.16,-3.42,-0.62,-40.19,28.25,33.5,0.67,-0.37,-0.11,-0.11,6.83,3.5,-2.7,0.0,1.0,3.0
5104,72.32904500000001,t,511.0,511.0,315.0,80.0,377.0,232.0,361.0,412.0,9.14,-3.47,-0.6,-35.25,16.31,11.06,0.67,-0.38,-0.12,-0.12,6.0,2.73,-3.36,0.0,1.0,3.0
5105,72.345077,t,511.0,511.0,318.0,81.0,387.0,238.0,367.0,429.0,9.15,-3.46,-0.6,-21.31,8.31,-9.44,0.67,-0.38,-0.12,-0.12,5.94,0.44,-3.96,0.0,1.0,3.0
5106,72.359124,t,511.0,511.0,330.0,80.0,402.0,247.0,374.0,452.0,9.16,-3.42,-0.6,23.31,-2.0,-24.87,0.67,-0.37,-0.12,-0.12,6.61,-1.81,-1.23,0.0,1.0,3.0
5107,72.375167,t,511.0,511.0,334.0,75.0,417.0,244.0,361.0,442.0,9.21,-3.31,-0.5,47.19,15.56,-24.5,0.68,-0.36,-0.12,-0.12,3.69,0.78,-1.31,0.0,1.0,3.0
5108,72.389239,t,511.0,511.0,335.0,75.0,417.0,246.0,362.0,442.0,9.22,-3.28,-0.45,41.31,16.37,-24.87,0.68,-0.36,-0.12,-0.12,2.24,1.45,-0.01,0.0,1.0,3.0
5109,72.404332,t,511.0,511.0,336.0,75.0,421.0,251.0,360.0,436.0,9.24,-3.24,-0.41,30.12,15.44,-27.37,0.68,-0.35,-0.12,-0.12,2.18,1.29,0.25,0.0,1.0,3.0
5110,72.419361,t,511.0,511.0,331.0,73.0,412.0,244.0,360.0,430.0,9.26,-3.19,-0.38,21.31,13.5,-28.75,0.68,-0.35,-0.13,-0.13,1.94,0.49,-0.25,0.0,1.0,3.0
5111,72.434534,t,511.0,511.0,337.0,70.0,405.0,243.0,362.0,423.0,9.31,-3.05,-0.3,2.19,12.75,-31.44,0.68,-0.35,-0.13,-0.13,1.53,0.27,-0.3,0.0,1.0,3.0
5112,72.44958199999999,t,511.0,511.0,332.0,69.0,403.0,238.0,360.0,422.0,9.33,-2.99,-0.29,1.0,11.56,-34.44,0.68,-0.35,-0.13,-0.13,1.01,0.03,-0.21,0.0,1.0,3.0
5113,72.464586,t,511.0,511.0,332.0,69.0,402.0,236.0,359.0,422.0,9.35,-2.94,-0.27,2.69,8.69,-36.25,0.68,-0.34,-0.13,-0.13,-0.15,0.4,0.21,0.0,1.0,3.0
5114,72.479674,t,511.0,501.0,345.0,69.0,406.0,239.0,362.0,409.0,9.38,-2.81,-0.25,5.12,5.56,-39.19,0.68,-0.34,-0.14,-0.14,-0.77,0.39,-0.22,0.0,1.0,3.0
5115,72.494678,t,511.0,496.0,350.0,70.0,408.0,241.0,368.0,406.0,9.4,-2.75,-0.22,8.38,12.13,-39.56,0.69,-0.33,-0.14,-0.14,-3.41,-0.29,-0.68,0.0,1.0,3.0
5116,72.509723,t,511.0,485.0,347.0,73.0,408.0,242.0,363.0,407.0,9.44,-2.62,-0.15,19.69,19.31,-38.94,0.69,-0.33,-0.14,-0.14,-4.03,-0.36,-0.5,0.0,1.0,3.0
5117,72.524782,t,508.0,482.0,349.0,83.0,387.0,234.0,366.0,415.0,9.47,-2.51,-0.07,24.19,15.5,-32.75,0.69,-0.32,-0.15,-0.15,-5.14,-0.17,-0.35,0.0,1.0,3.0
5118,72.53978599999999,t,511.0,496.0,353.0,81.0,388.0,235.0,368.0,416.0,9.49,-2.46,-0.04,26.19,12.94,-29.5,0.69,-0.32,-0.15,-0.15,-6.07,0.1,-0.69,0.0,1.0,3.0
5119,72.554818,t,511.0,511.0,356.0,79.0,389.0,238.0,372.0,418.0,9.5,-2.42,-0.01,20.37,5.19,-30.37,0.69,-0.31,-0.15,-0.15,-6.16,-0.35,-1.06,0.0,1.0,3.0
5120,72.569846,t,511.0,511.0,358.0,79.0,395.0,240.0,375.0,418.0,9.52,-2.31,0.0,16.81,0.69,-32.38,0.69,-0.31,-0.15,-0.15,-5.39,-1.19,-1.41,0.0,1.0,3.0
5121,72.584908,t,511.0,511.0,360.0,79.0,400.0,241.0,372.0,421.0,9.54,-2.26,0.0,15.19,-3.06,-32.75,0.69,-0.3,-0.15,-0.15,-4.64,-2.55,-2.01,0.0,1.0,3.0
5122,72.598971,t,511.0,511.0,361.0,79.0,418.0,241.0,367.0,426.0,9.56,-2.17,0.01,20.37,-2.25,-24.56,0.69,-0.3,-0.15,-0.15,-4.75,-3.13,-1.7,0.0,1.0,3.0
5123,72.61499,t,511.0,511.0,349.0,80.0,434.0,242.0,354.0,434.0,9.56,-2.14,0.01,18.87,-1.94,-18.94,0.69,-0.3,-0.16,-0.16,-4.31,-4.75,-0.32,0.0,1.0,3.0
5124,72.62915,t,511.0,511.0,337.0,80.0,465.0,243.0,352.0,442.0,9.57,-2.12,0.01,-5.75,-1.19,-5.0,0.69,-0.3,-0.16,-0.16,-3.46,-6.39,-0.5,0.0,1.0,3.0
5125,72.644282,t,511.0,511.0,319.0,80.0,511.0,237.0,345.0,442.0,9.56,-2.16,0.0,-3.69,0.25,23.25,0.69,-0.3,-0.16,-0.16,-1.17,-7.04,0.09,0.0,1.0,3.0
5126,72.659425,t,511.0,511.0,310.0,81.0,511.0,235.0,334.0,447.0,9.54,-2.23,0.02,11.38,8.94,40.56,0.69,-0.31,-0.15,-0.15,-0.94,-4.27,1.52,0.0,1.0,3.0
5127,72.674581,t,511.0,511.0,307.0,81.0,511.0,235.0,326.0,432.0,9.52,-2.32,0.07,17.75,24.62,56.56,0.69,-0.31,-0.15,-0.15,-0.77,-1.27,0.98,0.0,1.0,3.0
5128,72.689574,t,511.0,511.0,288.0,82.0,511.0,249.0,329.0,429.0,9.49,-2.43,0.15,14.06,45.56,68.06,0.7,-0.31,-0.15,-0.15,-1.11,-0.28,-1.02,0.0,1.0,3.0
5129,72.704661,t,511.0,511.0,242.0,80.0,511.0,257.0,314.0,389.0,9.37,-2.82,0.5,-40.44,89.56,82.25,0.71,-0.33,-0.14,-0.14,-2.77,-2.4,-0.87,0.0,1.0,3.0
5130,72.719664,t,511.0,511.0,198.0,78.0,511.0,252.0,293.0,355.0,9.32,-2.97,0.62,-48.44,88.5,90.94,0.71,-0.34,-0.15,-0.15,-2.11,-6.13,-0.55,0.0,1.0,3.0
5131,72.734693,t,501.0,511.0,167.0,79.0,488.0,248.0,282.0,344.0,9.26,-3.14,0.71,-52.63,76.37,104.06,0.72,-0.35,-0.14,-0.14,-0.69,-6.64,-0.43,0.0,1.0,3.0
5132,72.749756,t,483.0,511.0,146.0,81.0,497.0,248.0,274.0,343.0,9.1,-3.55,0.79,-67.94,40.0,132.44,0.72,-0.36,-0.14,-0.14,2.78,-4.51,0.88,0.0,1.0,3.0
5133,72.764759,t,452.0,462.0,132.0,81.0,458.0,241.0,260.0,330.0,9.0,-3.79,0.73,-88.5,7.19,153.56,0.72,-0.39,-0.13,-0.13,6.04,-1.0,1.24,0.0,1.0,3.0
5134,72.77976100000001,t,389.0,364.0,116.0,81.0,408.0,216.0,230.0,309.0,8.79,-4.29,0.65,-97.06,-9.38,157.94,0.72,-0.42,-0.12,-0.12,7.5,-0.14,0.61,0.0,1.0,3.0
5135,72.794764,t,344.0,322.0,112.0,81.0,374.0,200.0,221.0,272.0,8.54,-4.78,0.4,-102.87,-35.81,159.37,0.71,-0.43,-0.12,-0.12,9.38,-1.54,-0.72,0.0,1.0,3.0
5136,72.809769,t,307.0,285.0,106.0,80.0,354.0,191.0,224.0,255.0,8.41,-5.03,0.26,-95.25,-38.13,163.37,0.71,-0.45,-0.11,-0.11,10.39,-2.18,-0.54,0.0,1.0,3.0
5137,72.824802,t,263.0,246.0,113.0,78.0,328.0,180.0,223.0,228.0,8.1,-5.51,0.07,-58.88,-13.06,168.81,0.7,-0.47,-0.1,-0.1,10.18,-0.78,-0.54,0.0,1.0,3.0
5138,72.839866,t,259.0,226.0,116.0,71.0,331.0,184.0,236.0,227.0,7.94,-5.74,0.04,-33.75,1.25,163.75,0.7,-0.49,-0.08,-0.08,9.17,1.57,-0.31,0.0,1.0,3.0
5139,72.854863,t,255.0,222.0,119.0,69.0,332.0,189.0,246.0,232.0,7.66,-6.12,0.02,-8.25,-2.37,128.69,0.7,-0.49,-0.07,-0.07,5.28,4.34,-1.1,0.0,1.0,3.0
5140,72.869901,t,260.0,226.0,118.0,69.0,335.0,191.0,246.0,236.0,7.55,-6.25,0.0,-7.12,-18.25,99.87,0.7,-0.5,-0.07,-0.07,3.37,3.22,-0.39,0.0,1.0,3.0
5141,72.884944,t,274.0,216.0,117.0,69.0,338.0,190.0,254.0,240.0,7.47,-6.35,-0.04,-1.25,-31.69,76.5,0.7,-0.51,-0.06,-0.06,3.41,2.32,0.17,0.0,1.0,3.0
5142,72.899016,t,290.0,223.0,112.0,69.0,338.0,198.0,248.0,243.0,7.41,-6.42,-0.07,47.06,-34.25,14.81,0.7,-0.51,-0.05,-0.05,1.97,1.16,2.63,0.0,1.0,3.0
5143,72.915076,t,331.0,240.0,104.0,68.0,339.0,217.0,250.0,266.0,7.35,-6.49,-0.04,62.75,-27.81,5.75,0.7,-0.51,-0.05,-0.05,1.42,1.13,2.87,0.0,1.0,3.0
5144,72.929109,t,336.0,243.0,104.0,68.0,338.0,218.0,241.0,268.0,7.35,-6.49,0.0,77.75,-22.56,-0.44,0.71,-0.5,-0.05,-0.05,0.91,1.62,2.78,0.0,1.0,3.0
5145,72.945156,t,330.0,243.0,107.0,69.0,328.0,216.0,237.0,269.0,7.36,-6.47,0.08,90.56,-18.0,-9.25,0.71,-0.5,-0.04,-0.04,1.18,2.47,2.54,0.0,1.0,3.0
5146,72.959214,t,296.0,241.0,108.0,68.0,298.0,206.0,230.0,252.0,7.41,-6.4,0.3,106.31,-1.37,-43.88,0.72,-0.48,-0.04,-0.04,-0.07,5.58,1.7,0.0,1.0,3.0
5147,72.974328,t,289.0,250.0,102.0,71.0,286.0,200.0,227.0,247.0,7.52,-6.26,0.51,91.06,3.31,-57.38,0.72,-0.47,-0.04,-0.04,-0.7,6.86,0.7,0.0,1.0,3.0
5148,72.98942,t,282.0,269.0,99.0,69.0,281.0,195.0,224.0,244.0,7.6,-6.16,0.6,68.62,5.69,-72.37,0.73,-0.46,-0.04,-0.04,-1.13,7.29,-0.89,0.0,1.0,3.0
5149,73.004775,t,295.0,283.0,105.0,69.0,269.0,189.0,218.0,243.0,7.69,-6.04,0.66,50.75,7.87,-85.69,0.73,-0.45,-0.06,-0.06,-2.23,8.11,0.08,0.0,1.0,3.0
5150,73.019778,t,302.0,277.0,101.0,68.0,250.0,182.0,202.0,244.0,7.9,-5.76,0.73,22.94,-0.81,-109.37,0.73,-0.44,-0.07,-0.07,-2.24,7.66,0.89,0.0,1.0,3.0
5151,73.034781,t,302.0,254.0,102.0,69.0,248.0,175.0,207.0,248.0,8.02,-5.59,0.72,3.37,-8.5,-122.5,0.73,-0.43,-0.07,-0.07,-1.83,5.95,1.44,0.0,1.0,3.0
5152,73.049785,t,298.0,224.0,102.0,69.0,246.0,158.0,204.0,250.0,8.28,-5.2,0.66,-23.06,-13.38,-145.44,0.73,-0.43,-0.08,-0.08,-1.67,5.11,1.56,0.0,1.0,3.0
5153,73.064828,t,295.0,214.0,104.0,71.0,240.0,134.0,188.0,240.0,8.54,-4.77,0.54,-38.5,-20.62,-151.06,0.72,-0.42,-0.11,-0.11,-0.65,1.61,1.54,0.0,1.0,3.0
5154,73.079831,t,272.0,232.0,100.0,73.0,236.0,134.0,190.0,239.0,8.67,-4.55,0.48,-36.69,-14.56,-147.0,0.71,-0.41,-0.13,-0.13,-1.15,-1.39,1.02,0.0,1.0,3.0
5155,73.09486,t,264.0,244.0,95.0,74.0,235.0,140.0,198.0,242.0,8.88,-4.12,0.39,-30.69,-9.38,-141.12,0.71,-0.41,-0.14,-0.14,-1.53,-1.74,1.09,0.0,1.0,3.0
5156,73.109881,t,279.0,254.0,92.0,75.0,234.0,149.0,202.0,240.0,8.98,-3.92,0.36,-24.19,-8.5,-132.69,0.7,-0.4,-0.15,-0.15,-1.33,-2.43,0.72,0.0,1.0,3.0
5157,73.124896,t,296.0,273.0,92.0,68.0,227.0,151.0,201.0,238.0,9.06,-3.73,0.33,-17.06,-10.25,-121.56,0.7,-0.4,-0.17,-0.17,-1.53,-2.68,0.7,0.0,1.0,3.0
5158,73.13995800000001,t,323.0,293.0,94.0,69.0,230.0,164.0,210.0,249.0,9.13,-3.56,0.31,-2.81,-8.38,-94.37,0.7,-0.39,-0.17,-0.17,-2.72,-2.97,-0.38,0.0,1.0,3.0
5159,73.154991,t,390.0,318.0,98.0,73.0,251.0,191.0,240.0,291.0,9.27,-3.17,0.28,13.0,-8.44,-70.25,0.69,-0.38,-0.18,-0.18,-3.64,-3.55,-2.11,0.0,1.0,3.0
5160,73.169023,t,428.0,326.0,95.0,72.0,252.0,198.0,239.0,300.0,9.3,-3.07,0.28,18.62,-8.44,-60.44,0.69,-0.38,-0.19,-0.19,-4.04,-2.74,-2.6,0.0,1.0,3.0
5161,73.185045,t,446.0,339.0,97.0,71.0,271.0,209.0,257.0,325.0,9.33,-2.99,0.28,17.69,-10.63,-38.5,0.69,-0.38,-0.19,-0.19,-4.14,-1.88,-2.02,0.0,1.0,3.0
5162,73.199174,t,451.0,346.0,98.0,70.0,274.0,214.0,262.0,336.0,9.36,-2.88,0.25,16.31,-18.19,-30.25,0.69,-0.38,-0.19,-0.19,-3.96,-1.61,-1.48,0.0,1.0,3.0
5163,73.214317,t,455.0,354.0,103.0,68.0,274.0,210.0,265.0,340.0,9.39,-2.8,0.17,15.81,-30.62,-21.19,0.69,-0.37,-0.19,-0.19,-2.7,-1.11,-0.07,0.0,1.0,3.0
5164,73.229441,t,447.0,351.0,106.0,68.0,262.0,206.0,267.0,339.0,9.4,-2.77,0.13,11.0,-26.19,-13.19,0.68,-0.37,-0.19,-0.19,-4.48,-0.5,0.26,0.0,1.0,3.0
5165,73.244574,t,436.0,362.0,112.0,75.0,265.0,202.0,268.0,334.0,9.41,-2.74,0.05,10.63,-28.56,-8.19,0.68,-0.37,-0.19,-0.19,-4.59,0.3,0.64,0.0,1.0,3.0
5166,73.259658,t,439.0,394.0,137.0,74.0,278.0,198.0,298.0,354.0,9.41,-2.73,0.0,14.5,-38.19,-4.31,0.68,-0.37,-0.19,-0.19,-3.89,0.88,0.14,0.0,1.0,3.0
5167,73.274687,t,493.0,446.0,194.0,79.0,284.0,198.0,308.0,377.0,9.41,-2.73,-0.08,14.25,-57.94,-1.44,0.67,-0.38,-0.19,-0.19,-2.37,1.24,0.24,0.0,1.0,3.0
5168,73.289747,t,511.0,511.0,238.0,80.0,301.0,214.0,338.0,413.0,9.41,-2.72,-0.4,33.69,-120.0,-8.88,0.67,-0.37,-0.18,-0.18,10.88,0.01,-2.06,0.0,1.0,3.0
5169,73.304779,t,511.0,511.0,311.0,78.0,316.0,231.0,344.0,456.0,9.41,-2.65,-0.67,-19.75,-58.19,-18.94,0.66,-0.37,-0.18,-0.18,5.27,-1.84,4.67,0.0,1.0,3.0
5170,73.319812,t,511.0,511.0,319.0,76.0,314.0,225.0,330.0,432.0,9.41,-2.65,-0.74,-106.69,-13.25,9.94,0.65,-0.39,-0.19,-0.19,0.37,-6.1,0.45,0.0,1.0,3.0
5171,73.334846,t,511.0,511.0,344.0,78.0,313.0,220.0,351.0,430.0,9.38,-2.73,-0.77,-67.56,17.75,84.62,0.65,-0.4,-0.19,-0.19,1.21,-0.3,-5.01,0.0,1.0,3.0
5172,73.349849,t,511.0,511.0,377.0,81.0,317.0,217.0,366.0,436.0,9.3,-3.0,-0.77,-44.44,16.44,90.94,0.65,-0.41,-0.18,-0.18,8.64,-0.58,-0.74,0.0,1.0,3.0
5173,73.364852,t,511.0,511.0,406.0,70.0,353.0,228.0,378.0,442.0,9.23,-3.19,-0.79,-15.5,1.56,44.69,0.65,-0.42,-0.18,-0.18,9.62,-1.36,-2.61,0.0,1.0,3.0
5174,73.379916,t,511.0,511.0,386.0,72.0,374.0,236.0,371.0,458.0,9.23,-3.21,-0.77,-16.31,17.31,15.19,0.65,-0.42,-0.18,-0.18,6.37,-3.48,-2.59,0.0,1.0,3.0
5175,73.394982,t,511.0,511.0,359.0,78.0,389.0,241.0,364.0,466.0,9.21,-3.27,-0.74,3.31,6.56,21.44,0.66,-0.42,-0.18,-0.18,6.51,-1.64,-0.32,0.0,1.0,3.0
5176,73.409123,t,511.0,511.0,362.0,81.0,403.0,247.0,368.0,459.0,9.2,-3.3,-0.7,29.44,13.5,18.62,0.66,-0.42,-0.18,-0.18,6.08,-0.27,-0.5,0.0,1.0,3.0
5177,73.424274,t,511.0,511.0,374.0,74.0,408.0,252.0,374.0,447.0,9.2,-3.32,-0.63,57.31,24.5,10.44,0.66,-0.41,-0.18,-0.18,5.37,0.67,-1.57,0.0,1.0,3.0
5178,73.439498,t,511.0,511.0,412.0,74.0,396.0,252.0,386.0,433.0,9.22,-3.3,-0.44,77.19,0.13,-21.75,0.67,-0.4,-0.17,-0.17,4.15,5.17,-0.82,0.0,1.0,3.0
5179,73.454585,t,511.0,511.0,419.0,70.0,396.0,255.0,392.0,438.0,9.24,-3.25,-0.42,58.88,-7.06,-35.75,0.67,-0.4,-0.17,-0.17,4.22,5.3,-1.22,0.0,1.0,3.0
5180,73.469643,t,511.0,511.0,427.0,68.0,393.0,257.0,392.0,440.0,9.26,-3.18,-0.42,30.94,-10.88,-47.19,0.67,-0.39,-0.17,-0.17,4.32,3.93,-0.74,0.0,1.0,3.0
5181,73.484672,t,511.0,511.0,421.0,69.0,390.0,259.0,388.0,445.0,9.29,-3.09,-0.43,-8.75,-6.5,-59.25,0.67,-0.39,-0.18,-0.18,2.94,1.5,-1.06,0.0,1.0,3.0
