index,time,type,FSR1,FSR2,FSR3,FSR4,FSR5,FSR6,FSR7,FSR8,GravX,GravY,GravZ,GyroX,GyroY,GyroZ,QuatW,QuatX,QuatY,QuatZ,LiAccX,LiAccY,LiAccZ,GyroCal,AccelCal,MagCal
122,0.705191,t,471.0,474.0,345.0,86.0,312.0,251.0,369.0,484.0,9.73,-1.12,0.23,-0.25,0.44,-0.44,0.45,0.49,0.55,0.55,0.07,-0.02,-0.05,0.0,1.0,3.0
123,0.710201,t,475.0,478.0,347.0,87.0,314.0,253.0,371.0,489.0,9.73,-1.12,0.23,-0.62,0.5,-0.19,0.45,0.49,0.55,0.55,0.03,-0.01,-0.04,0.0,1.0,3.0
124,0.71719,t,469.0,478.0,350.0,88.0,319.0,263.0,392.0,511.0,9.73,-1.12,0.23,0.06,0.31,0.0,0.45,0.49,0.55,0.55,0.07,-0.02,-0.02,0.0,1.0,3.0
125,0.722204,t,472.0,475.0,346.0,87.0,313.0,251.0,370.0,484.0,9.73,-1.12,0.23,0.0,0.31,-0.19,0.45,0.49,0.55,0.55,0.03,-0.04,-0.01,0.0,1.0,3.0
126,0.728198,t,475.0,478.0,347.0,87.0,314.0,252.0,371.0,488.0,9.73,-1.12,0.23,-0.31,0.25,-0.13,0.45,0.49,0.55,0.55,0.04,-0.02,0.0,0.0,1.0,3.0
127,0.733206,t,476.0,478.0,348.0,87.0,315.0,254.0,373.0,492.0,9.73,-1.12,0.23,-0.94,0.69,0.0,0.45,0.49,0.55,0.55,0.09,0.03,-0.03,0.0,1.0,3.0
128,0.738205,t,472.0,474.0,346.0,86.0,314.0,251.0,369.0,483.0,9.73,-1.12,0.23,-1.37,0.69,-0.25,0.45,0.49,0.55,0.55,0.04,0.04,-0.02,0.0,1.0,3.0
129,0.744206,t,471.0,474.0,345.0,86.0,314.0,250.0,369.0,482.0,9.73,-1.12,0.23,-1.37,0.5,-0.31,0.45,0.49,0.55,0.55,0.03,0.0,-0.01,0.0,1.0,3.0
130,0.750208,t,471.0,473.0,346.0,87.0,315.0,251.0,369.0,485.0,9.73,-1.12,0.23,-1.12,0.25,-0.5,0.45,0.49,0.55,0.55,0.05,-0.01,-0.06,0.0,1.0,3.0
131,0.757209,t,470.0,473.0,345.0,87.0,314.0,251.0,369.0,482.0,9.73,-1.12,0.23,-0.69,0.5,-0.5,0.45,0.49,0.55,0.55,0.03,-0.07,-0.04,0.0,1.0,3.0
132,0.765213,t,470.0,474.0,345.0,87.0,315.0,251.0,370.0,485.0,9.73,-1.12,0.23,-0.25,0.56,-0.37,0.45,0.49,0.55,0.55,0.05,-0.04,-0.03,0.0,1.0,3.0
133,0.770207,t,471.0,475.0,346.0,87.0,316.0,251.0,370.0,486.0,9.73,-1.12,0.23,0.0,0.62,-0.44,0.45,0.49,0.55,0.55,0.04,-0.02,0.0,0.0,1.0,3.0
134,0.775215,t,473.0,474.0,346.0,87.0,318.0,252.0,370.0,486.0,9.73,-1.12,0.23,0.0,0.44,-0.62,0.45,0.49,0.55,0.55,0.02,-0.04,-0.01,0.0,1.0,3.0
135,0.780217,t,471.0,469.0,345.0,86.0,317.0,251.0,370.0,484.0,9.73,-1.12,0.23,0.0,0.75,-0.69,0.45,0.49,0.55,0.55,0.01,-0.04,0.0,0.0,1.0,3.0
136,0.786218,t,470.0,471.0,345.0,86.0,319.0,250.0,370.0,484.0,9.73,-1.11,0.23,-0.06,0.5,-0.88,0.45,0.49,0.55,0.55,0.04,-0.03,0.0,0.0,1.0,3.0
137,0.791219,t,471.0,472.0,345.0,86.0,319.0,250.0,369.0,483.0,9.74,-1.11,0.24,0.0,0.19,-0.81,0.45,0.49,0.55,0.55,0.06,-0.02,-0.01,0.0,1.0,3.0
138,0.79622,t,470.0,470.0,344.0,87.0,319.0,248.0,368.0,480.0,9.74,-1.11,0.24,0.37,0.19,-0.81,0.45,0.49,0.55,0.55,0.05,0.0,0.02,0.0,1.0,3.0
139,0.801221,t,469.0,469.0,344.0,87.0,319.0,247.0,367.0,479.0,9.74,-1.11,0.24,0.13,0.0,-0.81,0.45,0.49,0.55,0.55,0.05,-0.02,0.0,0.0,1.0,3.0
140,0.807222,t,468.0,470.0,343.0,87.0,319.0,247.0,366.0,476.0,9.74,-1.11,0.24,0.13,0.0,-0.94,0.45,0.49,0.55,0.55,0.05,-0.05,-0.05,0.0,1.0,3.0
141,0.812224,t,472.0,471.0,342.0,88.0,319.0,247.0,366.0,477.0,9.74,-1.1,0.24,0.06,0.37,-0.81,0.45,0.49,0.55,0.55,0.04,-0.01,0.0,0.0,1.0,3.0
142,0.818225,t,475.0,476.0,345.0,88.0,324.0,248.0,368.0,480.0,9.74,-1.1,0.24,0.0,0.19,-0.81,0.45,0.49,0.55,0.55,0.06,0.0,0.0,0.0,1.0,3.0
143,0.823226,t,467.0,473.0,342.0,88.0,318.0,246.0,366.0,475.0,9.74,-1.1,0.24,0.37,0.0,-0.88,0.45,0.49,0.55,0.55,0.07,-0.01,-0.04,0.0,1.0,3.0
144,0.830228,t,478.0,484.0,347.0,88.0,319.0,249.0,370.0,482.0,9.74,-1.1,0.24,0.44,0.25,-1.0,0.45,0.49,0.55,0.55,0.06,0.03,0.01,0.0,1.0,3.0
145,0.836229,t,467.0,471.0,342.0,88.0,319.0,245.0,366.0,469.0,9.74,-1.09,0.24,0.0,0.25,-1.06,0.45,0.49,0.55,0.55,0.03,0.02,0.01,0.0,1.0,3.0
146,0.841228,t,460.0,470.0,344.0,88.0,328.0,255.0,379.0,489.0,9.74,-1.09,0.24,0.0,0.37,-1.06,0.45,0.49,0.55,0.55,0.04,0.05,-0.02,0.0,1.0,3.0
147,0.846229,t,467.0,470.0,342.0,87.0,316.0,245.0,365.0,468.0,9.74,-1.09,0.24,-0.44,0.5,-1.19,0.45,0.49,0.55,0.55,0.02,0.01,-0.02,0.0,1.0,3.0
148,0.851231,t,469.0,472.0,343.0,87.0,317.0,240.0,365.0,468.0,9.74,-1.08,0.24,-0.13,0.37,-1.25,0.45,0.49,0.55,0.55,0.02,0.01,-0.04,0.0,1.0,3.0
149,0.857234,t,465.0,470.0,342.0,87.0,317.0,236.0,364.0,469.0,9.74,-1.08,0.24,0.31,0.37,-1.06,0.45,0.49,0.55,0.55,0.04,0.02,-0.05,0.0,1.0,3.0
150,0.862235,t,457.0,468.0,344.0,89.0,323.0,243.0,372.0,477.0,9.74,-1.08,0.24,0.88,0.37,-1.12,0.45,0.49,0.55,0.55,0.06,-0.02,0.0,0.0,1.0,3.0
151,0.868236,t,462.0,462.0,342.0,87.0,315.0,236.0,362.0,462.0,9.74,-1.07,0.24,0.69,0.5,-1.37,0.45,0.49,0.55,0.55,0.04,0.0,0.0,0.0,1.0,3.0
152,0.873237,t,455.0,458.0,345.0,89.0,323.0,244.0,372.0,476.0,9.74,-1.07,0.24,0.75,0.5,-1.31,0.45,0.49,0.55,0.55,0.07,0.01,-0.01,0.0,1.0,3.0
153,0.878239,t,457.0,462.0,346.0,90.0,324.0,245.0,374.0,480.0,9.74,-1.07,0.24,0.19,0.81,-1.19,0.45,0.49,0.55,0.55,0.08,0.0,0.0,0.0,1.0,3.0
154,0.88324,t,462.0,462.0,345.0,88.0,316.0,235.0,362.0,464.0,9.74,-1.06,0.24,-0.13,0.75,-1.37,0.45,0.49,0.55,0.55,0.05,0.02,-0.03,0.0,1.0,3.0
155,0.889241,t,451.0,460.0,346.0,90.0,322.0,239.0,370.0,471.0,9.74,-1.06,0.24,-0.13,0.69,-1.19,0.45,0.49,0.55,0.55,0.03,0.04,0.0,0.0,1.0,3.0
156,0.894242,t,459.0,463.0,345.0,87.0,314.0,230.0,361.0,460.0,9.74,-1.06,0.24,-0.06,0.62,-1.25,0.45,0.49,0.55,0.55,0.04,0.0,-0.08,0.0,1.0,3.0
157,0.900244,t,460.0,464.0,345.0,88.0,312.0,231.0,361.0,462.0,9.74,-1.05,0.25,0.0,0.69,-1.44,0.45,0.49,0.55,0.55,0.03,0.0,-0.02,0.0,1.0,3.0
158,0.905245,t,457.0,462.0,341.0,87.0,314.0,226.0,360.0,461.0,9.74,-1.05,0.25,-0.31,0.75,-1.25,0.45,0.49,0.55,0.55,0.04,-0.01,0.0,0.0,1.0,3.0
159,0.910246,t,458.0,463.0,342.0,86.0,314.0,226.0,360.0,462.0,9.74,-1.04,0.25,-0.31,1.06,-1.31,0.45,0.49,0.55,0.55,0.05,-0.03,-0.03,0.0,1.0,3.0
160,0.915247,t,456.0,463.0,341.0,86.0,313.0,226.0,358.0,460.0,9.74,-1.04,0.25,0.0,1.31,-1.0,0.45,0.49,0.55,0.55,0.03,-0.02,-0.03,0.0,1.0,3.0
161,0.921248,t,455.0,459.0,340.0,86.0,312.0,225.0,357.0,456.0,9.74,-1.04,0.26,-0.13,1.5,-0.81,0.46,0.49,0.55,0.55,0.04,0.09,-0.02,0.0,1.0,3.0
162,0.926249,t,457.0,460.0,339.0,86.0,314.0,226.0,353.0,451.0,9.74,-1.04,0.26,-0.44,1.12,-0.81,0.46,0.49,0.55,0.55,0.04,0.05,0.0,0.0,1.0,3.0
163,0.932251,t,454.0,457.0,338.0,84.0,313.0,221.0,352.0,451.0,9.74,-1.04,0.26,-2.0,1.25,-0.81,0.46,0.49,0.55,0.55,0.03,0.0,-0.04,0.0,1.0,3.0
164,0.938282,t,454.0,456.0,337.0,85.0,316.0,220.0,352.0,452.0,9.74,-1.03,0.27,-2.19,1.31,-1.0,0.46,0.49,0.55,0.55,0.03,-0.02,0.01,0.0,1.0,3.0
165,0.944284,t,452.0,454.0,336.0,86.0,317.0,218.0,351.0,447.0,9.74,-1.03,0.27,-2.12,1.62,-0.88,0.46,0.49,0.55,0.55,0.0,-0.01,-0.03,0.0,1.0,3.0
166,0.949285,t,453.0,454.0,336.0,85.0,319.0,219.0,350.0,449.0,9.74,-1.03,0.28,-1.44,1.19,-0.88,0.46,0.49,0.55,0.55,0.05,0.04,-0.03,0.0,1.0,3.0
167,0.954286,t,452.0,454.0,335.0,85.0,319.0,220.0,350.0,446.0,9.74,-1.03,0.28,-1.31,1.0,-1.0,0.46,0.49,0.55,0.55,0.07,-0.03,-0.05,0.0,1.0,3.0
168,0.961286,t,453.0,454.0,336.0,85.0,319.0,220.0,349.0,445.0,9.74,-1.02,0.28,-1.0,0.94,-0.94,0.46,0.49,0.55,0.55,0.07,-0.02,-0.05,0.0,1.0,3.0
169,0.968287,t,454.0,456.0,336.0,84.0,323.0,221.0,350.0,446.0,9.74,-1.02,0.28,-0.94,1.12,-0.88,0.46,0.49,0.55,0.55,-0.01,-0.07,-0.01,0.0,1.0,3.0
170,0.974291,t,456.0,458.0,338.0,85.0,324.0,222.0,351.0,447.0,9.74,-1.02,0.28,-1.62,1.37,-0.62,0.46,0.49,0.55,0.55,0.01,-0.05,-0.04,0.0,1.0,3.0
171,0.979292,t,456.0,460.0,339.0,85.0,324.0,222.0,350.0,447.0,9.74,-1.02,0.29,-1.56,1.06,-0.88,0.46,0.49,0.55,0.55,0.08,0.01,-0.02,0.0,1.0,3.0
172,0.985293,t,456.0,458.0,338.0,84.0,324.0,222.0,350.0,447.0,9.74,-1.02,0.29,-1.25,1.12,-0.88,0.46,0.49,0.55,0.55,0.08,-0.02,-0.01,0.0,1.0,3.0
173,0.991294,t,455.0,456.0,338.0,85.0,323.0,221.0,350.0,447.0,9.74,-1.01,0.29,-1.31,1.75,-0.62,0.46,0.49,0.55,0.55,0.09,0.0,0.0,0.0,1.0,3.0
174,0.996295,t,460.0,462.0,342.0,86.0,328.0,223.0,353.0,456.0,9.74,-1.01,0.3,-1.37,1.56,-0.44,0.46,0.49,0.55,0.55,0.03,0.04,0.03,0.0,1.0,3.0
175,1.001296,t,444.0,453.0,343.0,86.0,331.0,226.0,355.0,456.0,9.74,-1.01,0.3,-1.31,1.19,-0.69,0.46,0.49,0.55,0.55,0.04,0.03,0.06,0.0,1.0,3.0
176,1.008298,t,451.0,454.0,337.0,85.0,326.0,220.0,349.0,449.0,9.74,-1.01,0.3,-1.5,1.0,-0.69,0.46,0.49,0.55,0.55,0.05,0.03,0.0,0.0,1.0,3.0
177,1.014299,t,446.0,453.0,340.0,86.0,334.0,228.0,367.0,480.0,9.74,-1.01,0.31,-1.44,1.31,-1.06,0.46,0.49,0.55,0.55,0.0,-0.05,-0.07,0.0,1.0,3.0
178,1.020301,t,446.0,449.0,340.0,86.0,334.0,229.0,362.0,484.0,9.74,-1.01,0.31,-0.88,1.12,-0.81,0.46,0.49,0.55,0.55,0.02,-0.06,-0.02,0.0,1.0,3.0
179,1.026302,t,453.0,442.0,337.0,86.0,330.0,221.0,350.0,454.0,9.74,-1.0,0.31,-1.25,1.37,-0.88,0.46,0.49,0.55,0.55,0.03,-0.06,0.0,0.0,1.0,3.0
180,1.031303,t,452.0,442.0,338.0,85.0,330.0,221.0,349.0,453.0,9.74,-1.0,0.31,-1.12,1.19,-0.94,0.46,0.49,0.55,0.55,0.08,-0.09,0.01,0.0,1.0,3.0
181,1.037305,t,453.0,440.0,336.0,84.0,329.0,221.0,348.0,453.0,9.74,-1.0,0.32,-1.19,1.12,-1.19,0.46,0.49,0.55,0.55,0.06,-0.09,0.03,0.0,1.0,3.0
182,1.043306,t,455.0,436.0,332.0,82.0,332.0,220.0,348.0,458.0,9.74,-1.0,0.32,-2.69,1.37,0.31,0.46,0.49,0.55,0.55,0.02,-0.19,-0.08,0.0,1.0,3.0
183,1.049314,t,466.0,434.0,329.0,83.0,333.0,219.0,346.0,462.0,9.74,-1.0,0.32,-4.12,1.94,1.12,0.46,0.49,0.55,0.55,-0.01,-0.2,-0.05,0.0,1.0,3.0
184,1.055303,t,479.0,428.0,317.0,84.0,334.0,216.0,345.0,469.0,9.74,-1.0,0.33,-5.81,2.56,1.94,0.46,0.48,0.55,0.55,-0.03,-0.18,-0.05,0.0,1.0,3.0
185,1.060308,t,486.0,422.0,309.0,83.0,334.0,215.0,338.0,481.0,9.74,-1.01,0.33,-8.56,2.94,3.06,0.46,0.48,0.55,0.55,0.0,-0.17,-0.03,0.0,1.0,3.0
186,1.065309,t,483.0,413.0,285.0,84.0,344.0,214.0,338.0,511.0,9.74,-1.05,0.34,-19.5,2.87,8.69,0.46,0.48,0.55,0.55,0.03,-0.61,-0.03,0.0,1.0,3.0
187,1.07031,t,479.0,421.0,282.0,84.0,334.0,202.0,332.0,490.0,9.74,-1.07,0.34,-20.5,2.81,10.13,0.46,0.48,0.55,0.55,0.03,-0.52,-0.05,0.0,1.0,3.0
188,1.076312,t,460.0,409.0,270.0,83.0,327.0,195.0,322.0,477.0,9.73,-1.09,0.34,-20.5,2.56,11.56,0.46,0.48,0.55,0.55,-0.09,-0.46,-0.07,0.0,1.0,3.0
189,1.082315,t,433.0,408.0,266.0,82.0,322.0,185.0,318.0,466.0,9.73,-1.11,0.34,-19.75,0.81,14.38,0.46,0.47,0.55,0.55,-0.13,-1.46,-0.05,0.0,1.0,3.0
190,1.087316,t,381.0,399.0,251.0,82.0,314.0,162.0,297.0,425.0,9.72,-1.22,0.32,-19.19,-2.94,27.37,0.46,0.47,0.55,0.55,0.28,-1.72,0.25,0.0,1.0,3.0
191,1.092304,t,353.0,394.0,244.0,82.0,308.0,156.0,291.0,407.0,9.71,-1.29,0.31,-20.75,-7.06,44.25,0.46,0.47,0.55,0.55,-1.01,-2.0,-0.4,0.0,1.0,3.0
192,1.098319,t,332.0,392.0,238.0,80.0,308.0,150.0,288.0,393.0,9.7,-1.35,0.31,-10.19,4.5,31.75,0.46,0.47,0.55,0.55,0.53,-2.23,0.48,0.0,1.0,3.0
193,1.10532,t,308.0,382.0,230.0,81.0,306.0,144.0,284.0,380.0,9.69,-1.41,0.32,-9.44,7.87,38.44,0.46,0.47,0.55,0.55,-0.36,-2.9,0.31,0.0,1.0,3.0
194,1.110321,t,268.0,365.0,204.0,77.0,299.0,134.0,260.0,352.0,9.67,-1.58,0.35,-3.62,16.12,56.75,0.45,0.46,0.56,0.56,-0.47,-3.12,0.34,0.0,1.0,3.0
195,1.115322,t,262.0,346.0,186.0,77.0,296.0,132.0,254.0,342.0,9.63,-1.77,0.41,1.81,15.88,62.69,0.45,0.45,0.56,0.56,-0.58,-3.03,0.41,0.0,1.0,3.0
196,1.121324,t,247.0,341.0,180.0,76.0,295.0,133.0,246.0,324.0,9.61,-1.88,0.43,1.81,15.88,62.69,0.45,0.45,0.57,0.57,-0.43,-2.84,0.37,0.0,1.0,3.0
197,1.126325,t,253.0,325.0,172.0,75.0,290.0,134.0,240.0,315.0,9.56,-2.11,0.5,19.0,19.37,74.69,0.44,0.44,0.58,0.58,-0.04,-2.34,-0.45,0.0,1.0,3.0
198,1.131326,t,259.0,323.0,170.0,75.0,290.0,134.0,236.0,314.0,9.53,-2.23,0.55,29.5,20.69,74.31,0.43,0.43,0.58,0.58,-0.07,-1.16,-1.07,0.0,1.0,3.0
199,1.137327,t,269.0,319.0,166.0,74.0,291.0,135.0,237.0,315.0,9.46,-2.47,0.65,42.0,25.87,72.62,0.43,0.43,0.59,0.59,-1.24,-0.71,-0.63,0.0,1.0,3.0
200,1.144316,t,273.0,310.0,163.0,75.0,296.0,135.0,237.0,310.0,9.43,-2.57,0.71,54.38,23.87,67.87,0.43,0.43,0.6,0.6,-1.69,-0.65,-0.6,0.0,1.0,3.0
201,1.151318,t,282.0,304.0,152.0,71.0,304.0,135.0,235.0,312.0,9.38,-2.74,0.78,64.56,-3.12,51.69,0.41,0.43,0.61,0.61,-0.7,-1.87,0.25,0.0,1.0,3.0
202,1.15732,t,297.0,302.0,151.0,71.0,311.0,136.0,236.0,314.0,9.36,-2.8,0.79,72.19,-16.69,39.5,0.41,0.43,0.61,0.61,-0.67,-2.59,0.21,0.0,1.0,3.0
203,1.163321,t,310.0,300.0,150.0,70.0,318.0,139.0,234.0,319.0,9.33,-2.9,0.81,81.62,-18.06,36.69,0.4,0.43,0.62,0.62,-0.54,-3.12,-0.05,0.0,1.0,3.0
204,1.169322,t,322.0,293.0,162.0,71.0,322.0,139.0,236.0,325.0,9.31,-2.94,0.83,100.31,-16.94,34.94,0.39,0.44,0.62,0.62,-0.16,-2.71,-0.59,0.0,1.0,3.0
205,1.175334,t,329.0,293.0,172.0,73.0,328.0,146.0,246.0,335.0,9.3,-2.98,0.88,127.12,-14.81,34.44,0.38,0.44,0.64,0.64,-0.31,-1.68,-0.79,0.0,1.0,3.0
206,1.180335,t,374.0,300.0,200.0,74.0,329.0,152.0,260.0,362.0,9.25,-3.04,1.08,209.5,-25.62,30.31,0.36,0.46,0.65,0.65,-1.13,4.21,1.16,0.0,1.0,3.0
207,1.185338,t,381.0,307.0,221.0,72.0,328.0,143.0,252.0,353.0,9.25,-3.04,1.13,221.0,-39.31,24.5,0.34,0.46,0.66,0.66,-0.78,4.8,1.6,0.0,1.0,3.0
208,1.191339,t,379.0,309.0,226.0,72.0,339.0,144.0,263.0,363.0,9.25,-3.02,1.17,221.94,-50.13,17.19,0.33,0.47,0.67,0.67,-0.42,4.69,1.35,0.0,1.0,3.0
209,1.196329,t,385.0,317.0,235.0,71.0,336.0,136.0,257.0,355.0,9.27,-2.95,1.2,177.75,-55.56,-6.69,0.3,0.5,0.69,0.69,-0.22,3.48,1.47,0.0,1.0,3.0
210,1.201342,t,395.0,340.0,247.0,72.0,341.0,134.0,261.0,362.0,9.3,-2.85,1.19,161.56,-58.06,-11.5,0.29,0.51,0.69,0.69,0.0,3.14,1.48,0.0,1.0,3.0
211,1.207335,t,415.0,358.0,259.0,74.0,356.0,135.0,266.0,360.0,9.32,-2.8,1.16,148.25,-61.94,-13.13,0.28,0.52,0.69,0.69,0.84,3.94,2.34,0.0,1.0,3.0
212,1.213332,t,435.0,377.0,277.0,73.0,355.0,142.0,270.0,383.0,9.34,-2.75,1.12,135.12,-66.81,-14.31,0.27,0.53,0.69,0.69,1.4,4.69,2.35,0.0,1.0,3.0
213,1.219333,t,447.0,390.0,310.0,75.0,344.0,150.0,278.0,386.0,9.38,-2.66,0.99,95.19,-72.25,-16.25,0.26,0.54,0.69,0.69,2.54,6.21,1.05,0.0,1.0,3.0
214,1.226335,t,455.0,511.0,348.0,77.0,373.0,202.0,317.0,399.0,9.42,-2.55,0.84,46.0,-55.81,-32.88,0.26,0.55,0.69,0.69,3.3,3.26,-1.84,0.0,1.0,3.0
215,1.231336,t,469.0,511.0,350.0,74.0,403.0,224.0,324.0,406.0,9.45,-2.49,0.78,24.62,-47.0,-40.5,0.26,0.55,0.69,0.69,3.57,-0.2,-2.18,0.0,1.0,3.0
216,1.238349,t,479.0,511.0,335.0,72.0,424.0,225.0,328.0,407.0,9.47,-2.42,0.71,9.31,-40.19,-42.06,0.26,0.56,0.68,0.68,2.33,-8.8,-0.95,0.0,1.0,3.0
217,1.244351,t,490.0,511.0,328.0,73.0,446.0,242.0,347.0,434.0,9.49,-2.36,0.67,28.19,-35.19,-8.81,0.25,0.57,0.68,0.68,0.26,-8.37,-0.03,0.0,1.0,3.0
218,1.249353,t,480.0,497.0,355.0,71.0,429.0,208.0,357.0,412.0,9.48,-2.41,0.51,74.94,-50.56,32.25,0.24,0.57,0.68,0.68,-0.65,2.52,-0.88,0.0,1.0,3.0
219,1.254354,t,463.0,484.0,363.0,71.0,419.0,202.0,358.0,425.0,9.48,-2.45,0.47,85.94,-47.56,26.12,0.23,0.58,0.69,0.69,0.31,3.96,-1.69,0.0,1.0,3.0
220,1.260355,t,464.0,511.0,355.0,71.0,407.0,212.0,352.0,421.0,9.48,-2.44,0.41,69.94,-36.75,-8.38,0.22,0.58,0.69,0.69,1.36,3.33,-3.16,0.0,1.0,3.0
221,1.265356,t,474.0,511.0,353.0,73.0,400.0,225.0,358.0,422.0,9.49,-2.4,0.39,70.75,-30.06,-17.87,0.22,0.59,0.69,0.69,0.92,-0.23,-3.01,0.0,1.0,3.0
222,1.270357,t,496.0,511.0,362.0,70.0,405.0,243.0,355.0,422.0,9.5,-2.36,0.38,79.75,-19.44,-18.94,0.21,0.59,0.69,0.69,0.55,-3.26,-2.55,0.0,1.0,3.0
223,1.276346,t,511.0,511.0,382.0,69.0,415.0,258.0,367.0,423.0,9.52,-2.29,0.4,117.69,-19.19,-14.56,0.2,0.6,0.69,0.69,0.42,-1.05,-3.59,0.0,1.0,3.0
224,1.28236,t,511.0,511.0,389.0,68.0,410.0,257.0,374.0,426.0,9.53,-2.27,0.4,133.87,-47.63,-5.5,0.19,0.61,0.69,0.69,0.54,0.95,-3.09,0.0,1.0,3.0
225,1.288361,t,511.0,511.0,393.0,69.0,406.0,252.0,376.0,434.0,9.54,-2.24,0.33,127.75,-58.88,-5.06,0.18,0.61,0.7,0.7,0.77,3.22,-1.35,0.0,1.0,3.0
226,1.293361,t,473.0,511.0,390.0,69.0,381.0,248.0,380.0,436.0,9.55,-2.2,0.2,104.44,-61.81,-9.69,0.17,0.63,0.69,0.69,0.66,3.38,-1.07,0.0,1.0,3.0
227,1.299362,t,463.0,511.0,383.0,69.0,377.0,251.0,389.0,425.0,9.56,-2.17,0.14,93.62,-58.5,-14.25,0.16,0.63,0.69,0.69,0.65,3.28,-0.73,0.0,1.0,3.0
228,1.306353,t,474.0,511.0,366.0,68.0,362.0,244.0,385.0,430.0,9.56,-2.14,0.08,82.87,-54.75,-19.31,0.16,0.64,0.69,0.69,0.59,2.89,-0.46,0.0,1.0,3.0
229,1.311354,t,488.0,511.0,361.0,68.0,355.0,245.0,385.0,455.0,9.58,-2.05,-0.02,67.31,-46.31,-29.75,0.15,0.65,0.69,0.69,0.44,0.27,-0.35,0.0,1.0,3.0
230,1.316355,t,493.0,511.0,364.0,74.0,353.0,248.0,385.0,459.0,9.6,-1.95,-0.12,71.94,-44.94,-30.25,0.14,0.65,0.69,0.69,0.58,-0.31,-0.27,0.0,1.0,3.0
231,1.322356,t,492.0,511.0,371.0,74.0,348.0,250.0,383.0,450.0,9.61,-1.91,-0.16,79.81,-41.63,-30.19,0.14,0.66,0.69,0.69,0.49,-1.29,-0.35,0.0,1.0,3.0
232,1.327358,t,478.0,511.0,387.0,79.0,342.0,258.0,391.0,450.0,9.62,-1.86,-0.19,90.81,-37.31,-29.75,0.14,0.66,0.69,0.69,0.09,-1.05,-0.67,0.0,1.0,3.0
233,1.332359,t,485.0,511.0,386.0,72.0,326.0,254.0,387.0,454.0,9.64,-1.77,-0.23,109.75,-23.69,-27.94,0.12,0.67,0.69,0.69,-0.3,-0.44,-1.55,0.0,1.0,3.0
234,1.33836,t,489.0,511.0,389.0,72.0,330.0,258.0,388.0,446.0,9.65,-1.69,-0.24,109.81,-19.75,-27.56,0.12,0.67,0.69,0.69,-0.42,-0.36,-1.8,0.0,1.0,3.0
235,1.343361,t,490.0,511.0,389.0,72.0,333.0,262.0,387.0,447.0,9.66,-1.65,-0.23,108.87,-17.69,-26.81,0.11,0.68,0.69,0.69,-0.51,-0.23,-1.81,0.0,1.0,3.0
236,1.349363,t,494.0,511.0,390.0,75.0,336.0,263.0,387.0,447.0,9.67,-1.61,-0.23,106.87,-16.37,-25.94,0.11,0.68,0.69,0.69,-0.48,-0.17,-2.01,0.0,1.0,3.0
237,1.355364,t,500.0,511.0,383.0,71.0,344.0,270.0,383.0,454.0,9.68,-1.54,-0.23,99.87,-17.19,-22.44,0.09,0.69,0.69,0.69,-0.3,0.01,-1.69,0.0,1.0,3.0
238,1.360376,t,496.0,511.0,380.0,68.0,342.0,270.0,382.0,455.0,9.68,-1.5,-0.23,95.81,-18.44,-21.56,0.09,0.69,0.69,0.69,-0.16,0.04,-1.68,0.0,1.0,3.0
239,1.366367,t,486.0,511.0,377.0,69.0,348.0,276.0,406.0,486.0,9.69,-1.44,-0.25,92.31,-19.12,-21.31,0.08,0.69,0.69,0.69,-0.14,0.23,-1.54,0.0,1.0,3.0
240,1.373368,t,488.0,511.0,369.0,69.0,335.0,260.0,386.0,461.0,9.7,-1.38,-0.27,88.62,-19.5,-21.0,0.07,0.7,0.69,0.69,-0.21,0.19,-1.32,0.0,1.0,3.0
241,1.37838,t,484.0,511.0,367.0,69.0,334.0,258.0,388.0,458.0,9.7,-1.35,-0.28,88.44,-21.5,-20.56,0.07,0.7,0.69,0.69,-0.11,0.6,-0.95,0.0,1.0,3.0
242,1.38437,t,481.0,511.0,370.0,69.0,333.0,260.0,383.0,456.0,9.71,-1.32,-0.3,87.69,-22.56,-20.56,0.06,0.7,0.69,0.69,-0.17,1.1,-0.72,0.0,1.0,3.0
243,1.389374,t,479.0,511.0,372.0,70.0,333.0,260.0,382.0,456.0,9.71,-1.28,-0.33,88.94,-10.25,-41.44,0.05,0.7,0.69,0.69,0.85,0.58,-0.67,0.0,1.0,3.0
244,1.394377,t,474.0,511.0,375.0,74.0,329.0,260.0,376.0,444.0,9.73,-1.12,-0.33,85.87,-11.63,-32.19,0.05,0.71,0.69,0.69,0.29,0.09,-1.48,0.0,1.0,3.0
245,1.400379,t,472.0,511.0,376.0,69.0,329.0,258.0,375.0,442.0,9.74,-1.08,-0.33,86.12,-12.13,-27.31,0.05,0.71,0.69,0.69,0.39,-0.03,-1.52,0.0,1.0,3.0
246,1.405375,t,472.0,511.0,377.0,70.0,332.0,259.0,374.0,447.0,9.74,-1.04,-0.33,88.81,-9.25,-26.31,0.04,0.71,0.69,0.69,0.52,-0.1,-1.38,0.0,1.0,3.0
247,1.411377,t,460.0,489.0,370.0,69.0,328.0,246.0,362.0,427.0,9.75,-0.97,-0.3,88.0,1.31,-13.19,0.03,0.71,0.7,0.7,0.05,0.0,-1.37,0.0,1.0,3.0
248,1.416378,t,460.0,489.0,370.0,72.0,319.0,246.0,360.0,432.0,9.75,-0.96,-0.28,90.37,2.19,-9.31,0.03,0.71,0.7,0.7,-0.18,0.24,-1.0,0.0,1.0,3.0
249,1.42138,t,453.0,487.0,369.0,72.0,324.0,252.0,367.0,446.0,9.75,-0.95,-0.26,91.31,2.12,-5.0,0.02,0.71,0.7,0.7,-0.05,0.39,-0.77,0.0,1.0,3.0
250,1.428381,t,454.0,489.0,369.0,73.0,319.0,250.0,364.0,444.0,9.75,-0.96,-0.24,88.69,1.44,-0.94,0.01,0.71,0.7,0.7,0.07,0.43,-0.98,0.0,1.0,3.0
251,1.434383,t,452.0,490.0,363.0,73.0,300.0,242.0,364.0,456.0,9.75,-0.98,-0.2,78.69,5.81,6.75,0.0,-0.71,-0.7,-0.7,0.32,0.65,-1.7,0.0,1.0,3.0
252,1.439394,t,456.0,493.0,358.0,69.0,295.0,230.0,345.0,428.0,9.75,-1.03,-0.14,72.75,13.56,15.5,0.01,-0.71,-0.7,-0.7,0.33,0.87,-1.55,0.0,1.0,3.0
253,1.444395,t,453.0,471.0,353.0,72.0,294.0,226.0,339.0,424.0,9.74,-1.06,-0.1,71.0,14.88,19.69,0.01,-0.71,-0.7,-0.7,0.22,1.3,-1.25,0.0,1.0,3.0
254,1.450396,t,458.0,470.0,341.0,77.0,289.0,224.0,336.0,413.0,9.73,-1.14,-0.02,62.56,16.31,25.0,0.02,-0.71,-0.71,-0.71,0.31,1.53,-1.03,0.0,1.0,3.0
255,1.455399,t,462.0,474.0,338.0,78.0,289.0,222.0,338.0,414.0,9.73,-1.19,0.01,57.06,16.69,26.25,0.03,-0.7,-0.71,-0.71,0.24,1.71,-0.96,0.0,1.0,3.0
256,1.4604,t,461.0,476.0,338.0,78.0,287.0,220.0,339.0,410.0,9.72,-1.23,0.05,51.06,16.62,26.31,0.04,-0.7,-0.71,-0.71,0.14,1.71,-1.3,0.0,1.0,3.0
257,1.466402,t,459.0,475.0,336.0,76.0,286.0,218.0,338.0,413.0,9.71,-1.31,0.12,37.25,17.25,24.44,0.04,-0.7,-0.71,-0.71,0.09,1.67,-1.38,0.0,1.0,3.0
258,1.471403,t,458.0,481.0,329.0,76.0,286.0,216.0,332.0,420.0,9.7,-1.39,0.2,27.87,17.62,24.87,0.04,-0.7,-0.71,-0.71,0.01,1.4,-1.13,0.0,1.0,3.0
259,1.476404,t,449.0,478.0,319.0,76.0,285.0,214.0,331.0,422.0,9.68,-1.48,0.27,19.75,17.81,26.12,0.05,-0.69,-0.72,-0.72,0.15,1.08,-1.51,0.0,1.0,3.0
260,1.482405,t,442.0,473.0,311.0,76.0,284.0,212.0,329.0,418.0,9.68,-1.52,0.3,17.5,18.87,26.87,0.05,-0.69,-0.72,-0.72,0.18,0.69,-1.11,0.0,1.0,3.0
261,1.487407,t,435.0,465.0,299.0,76.0,281.0,206.0,322.0,405.0,9.67,-1.57,0.34,14.69,19.81,27.69,0.05,-0.69,-0.72,-0.72,0.18,0.68,-0.29,0.0,1.0,3.0
262,1.492408,t,427.0,415.0,279.0,77.0,277.0,186.0,311.0,390.0,9.65,-1.67,0.4,5.69,17.31,31.87,0.05,-0.69,-0.72,-0.72,0.3,0.74,-0.26,0.0,1.0,3.0
263,1.498398,t,436.0,408.0,266.0,78.0,274.0,181.0,308.0,382.0,9.63,-1.78,0.46,-3.69,16.87,34.44,0.06,-0.69,-0.72,-0.72,0.58,0.78,-0.66,0.0,1.0,3.0
264,1.5044,t,426.0,386.0,250.0,78.0,268.0,171.0,300.0,377.0,9.61,-1.84,0.48,-7.31,17.31,34.63,0.05,-0.68,-0.72,-0.72,0.6,0.77,-0.8,0.0,1.0,3.0
265,1.511399,t,406.0,380.0,242.0,77.0,265.0,168.0,287.0,381.0,9.6,-1.9,0.51,-10.0,18.06,35.06,0.05,-0.68,-0.72,-0.72,0.63,0.69,-0.75,0.0,1.0,3.0
266,1.517401,t,401.0,362.0,234.0,75.0,260.0,156.0,282.0,379.0,9.59,-1.96,0.54,-12.56,19.56,36.5,0.06,-0.68,-0.73,-0.73,-0.06,0.24,-0.36,0.0,1.0,3.0
267,1.523402,t,378.0,334.0,218.0,74.0,251.0,143.0,270.0,366.0,9.55,-2.12,0.65,-7.44,24.31,30.87,0.06,-0.68,-0.73,-0.73,-0.65,0.02,-0.13,0.0,1.0,3.0
268,1.530416,t,366.0,317.0,209.0,75.0,247.0,139.0,261.0,354.0,9.53,-2.17,0.69,-1.94,25.25,29.81,0.06,-0.67,-0.73,-0.73,-0.49,-0.26,-0.34,0.0,1.0,3.0
269,1.537418,t,357.0,308.0,198.0,75.0,240.0,137.0,248.0,339.0,9.52,-2.22,0.73,4.75,26.69,28.69,0.06,-0.67,-0.73,-0.73,-0.44,-0.31,-0.38,0.0,1.0,3.0
270,1.543419,t,344.0,307.0,186.0,77.0,234.0,137.0,247.0,326.0,9.5,-2.26,0.78,12.44,24.0,27.62,0.06,-0.67,-0.73,-0.73,0.5,-0.48,-0.59,0.0,1.0,3.0
271,1.549421,t,333.0,306.0,162.0,78.0,222.0,120.0,220.0,282.0,9.46,-2.38,0.91,34.06,18.25,25.31,0.07,-0.67,-0.74,-0.74,0.46,-0.64,-0.7,0.0,1.0,3.0
272,1.554422,t,328.0,307.0,152.0,79.0,218.0,113.0,214.0,274.0,9.45,-2.41,0.95,37.5,17.5,24.87,0.07,-0.66,-0.74,-0.74,0.32,-0.79,-0.77,0.0,1.0,3.0
273,1.559423,t,322.0,290.0,147.0,79.0,212.0,113.0,213.0,264.0,9.44,-2.44,1.0,41.44,17.31,24.31,0.08,-0.66,-0.74,-0.74,0.36,-1.06,-0.84,0.0,1.0,3.0
274,1.565424,t,307.0,275.0,142.0,79.0,210.0,116.0,210.0,251.0,9.41,-2.51,1.11,52.31,22.06,24.19,0.08,-0.66,-0.74,-0.74,0.2,-1.02,-0.86,0.0,1.0,3.0
275,1.570425,t,300.0,252.0,136.0,80.0,200.0,114.0,200.0,237.0,9.38,-2.56,1.23,55.75,24.44,22.56,0.09,-0.65,-0.75,-0.75,-0.44,-0.2,-0.79,0.0,1.0,3.0
276,1.577435,t,294.0,246.0,134.0,80.0,191.0,111.0,194.0,230.0,9.37,-2.58,1.29,52.44,20.0,21.87,0.09,-0.65,-0.75,-0.75,-0.36,0.1,-0.73,0.0,1.0,3.0
277,1.583428,t,284.0,238.0,134.0,81.0,190.0,110.0,191.0,222.0,9.35,-2.61,1.33,45.38,12.69,21.5,0.1,-0.65,-0.75,-0.75,0.89,0.26,0.21,0.0,1.0,3.0
278,1.589428,t,277.0,237.0,134.0,81.0,185.0,111.0,190.0,215.0,9.34,-2.65,1.35,41.44,13.31,5.12,0.1,-0.65,-0.75,-0.75,-0.44,0.81,-0.5,0.0,1.0,3.0
279,1.595425,t,271.0,237.0,136.0,82.0,184.0,109.0,187.0,214.0,9.33,-2.63,1.42,39.0,9.81,-4.19,0.1,-0.65,-0.75,-0.75,-0.2,0.74,-0.52,0.0,1.0,3.0
280,1.60043,t,266.0,235.0,136.0,83.0,180.0,105.0,182.0,214.0,9.34,-2.58,1.47,29.5,3.12,-12.44,0.1,-0.65,-0.75,-0.75,0.35,0.33,-0.38,0.0,1.0,3.0
281,1.606421,t,270.0,235.0,142.0,82.0,181.0,106.0,182.0,216.0,9.35,-2.55,1.48,24.94,3.69,-15.88,0.1,-0.64,-0.75,-0.75,0.46,0.04,-0.21,0.0,1.0,3.0
282,1.612435,t,272.0,238.0,145.0,84.0,180.0,104.0,181.0,217.0,9.35,-2.51,1.5,20.62,6.31,-18.75,0.1,-0.64,-0.75,-0.75,0.07,-0.42,0.16,0.0,1.0,3.0
283,1.619426,t,260.0,240.0,168.0,90.0,248.0,116.0,197.0,264.0,9.47,-2.21,1.18,-3.12,0.94,0.37,0.22,0.57,0.72,0.72,0.0,-0.31,-0.16,0.0,1.0,3.0
284,1.625425,t,260.0,239.0,168.0,90.0,248.0,116.0,198.0,264.0,9.47,-2.22,1.18,-2.25,0.88,0.44,0.22,0.57,0.72,0.72,0.02,-0.32,-0.11,0.0,1.0,3.0
285,1.631437,t,260.0,239.0,169.0,89.0,247.0,115.0,197.0,264.0,9.47,-2.23,1.18,0.0,0.81,0.5,0.22,0.57,0.72,0.72,0.0,-0.3,-0.08,0.0,1.0,3.0
286,1.636438,t,260.0,240.0,168.0,89.0,248.0,115.0,197.0,264.0,9.47,-2.23,1.18,0.69,0.94,0.44,0.22,0.57,0.72,0.72,-0.02,-0.25,-0.1,0.0,1.0,3.0
287,1.641439,t,260.0,240.0,168.0,89.0,247.0,115.0,197.0,264.0,9.47,-2.23,1.18,1.62,0.94,0.25,0.22,0.57,0.72,0.72,-0.04,-0.26,-0.1,0.0,1.0,3.0
288,1.64743,t,259.0,240.0,168.0,89.0,247.0,115.0,197.0,264.0,9.47,-2.24,1.18,2.31,0.62,0.19,0.22,0.57,0.72,0.72,-0.04,-0.22,-0.1,0.0,1.0,3.0
289,1.652431,t,259.0,240.0,168.0,89.0,247.0,117.0,197.0,264.0,9.47,-2.24,1.19,3.5,0.56,0.0,0.22,0.57,0.72,0.72,-0.07,-0.23,-0.13,0.0,1.0,3.0
290,1.657432,t,256.0,239.0,168.0,90.0,251.0,120.0,202.0,272.0,9.47,-2.24,1.19,4.75,0.19,-0.19,0.22,0.57,0.72,0.72,-0.08,-0.23,-0.11,0.0,1.0,3.0
291,1.663434,t,259.0,239.0,168.0,89.0,248.0,116.0,196.0,264.0,9.47,-2.24,1.19,5.31,-0.06,-0.5,0.22,0.57,0.72,0.72,-0.06,-0.22,-0.11,0.0,1.0,3.0
292,1.668435,t,259.0,239.0,168.0,89.0,248.0,117.0,196.0,264.0,9.47,-2.24,1.19,5.87,-0.81,-0.25,0.22,0.57,0.72,0.72,-0.08,-0.2,-0.12,0.0,1.0,3.0
293,1.674436,t,257.0,242.0,170.0,90.0,250.0,120.0,199.0,264.0,9.47,-2.24,1.19,6.19,-1.19,-0.37,0.22,0.57,0.72,0.72,-0.08,-0.15,-0.12,0.0,1.0,3.0
294,1.679438,t,260.0,240.0,169.0,89.0,248.0,118.0,197.0,264.0,9.47,-2.24,1.19,6.69,-1.37,-0.25,0.21,0.57,0.72,0.72,-0.06,-0.18,-0.11,0.0,1.0,3.0
295,1.685439,t,257.0,239.0,168.0,90.0,251.0,121.0,203.0,274.0,9.47,-2.24,1.19,7.12,-1.56,-0.44,0.21,0.57,0.72,0.72,0.02,-0.11,-0.12,0.0,1.0,3.0
296,1.69144,t,259.0,240.0,168.0,89.0,247.0,117.0,197.0,264.0,9.47,-2.24,1.19,7.69,-1.62,-0.44,0.21,0.57,0.72,0.72,0.05,-0.11,-0.1,0.0,1.0,3.0
297,1.696441,t,260.0,240.0,169.0,89.0,248.0,118.0,198.0,265.0,9.47,-2.24,1.19,8.19,-1.69,-0.62,0.21,0.58,0.72,0.72,0.07,-0.17,-0.12,0.0,1.0,3.0
298,1.701442,t,260.0,240.0,168.0,89.0,247.0,117.0,197.0,265.0,9.47,-2.24,1.18,8.19,-1.69,-0.5,0.21,0.58,0.72,0.72,0.09,-0.2,-0.04,0.0,1.0,3.0
299,1.707444,t,259.0,239.0,168.0,90.0,246.0,117.0,197.0,264.0,9.47,-2.24,1.18,8.19,-1.62,-0.44,0.21,0.58,0.72,0.72,0.08,-0.21,-0.07,0.0,1.0,3.0
300,1.712445,t,260.0,240.0,169.0,90.0,248.0,117.0,198.0,265.0,9.47,-2.24,1.19,8.5,-1.31,-0.06,0.21,0.58,0.72,0.72,0.06,-0.21,-0.07,0.0,1.0,3.0
301,1.717446,t,261.0,240.0,168.0,89.0,247.0,116.0,197.0,264.0,9.47,-2.23,1.19,9.25,-1.0,0.19,0.21,0.58,0.72,0.72,0.05,-0.19,-0.08,0.0,1.0,3.0
302,1.723448,t,262.0,240.0,169.0,90.0,248.0,116.0,198.0,266.0,9.47,-2.24,1.19,9.75,-1.06,0.69,0.2,0.58,0.72,0.72,0.06,-0.18,-0.05,0.0,1.0,3.0
303,1.729449,t,261.0,240.0,169.0,90.0,248.0,116.0,198.0,266.0,9.47,-2.24,1.19,9.94,-1.06,0.75,0.2,0.58,0.72,0.72,0.05,-0.14,-0.08,0.0,1.0,3.0
304,1.73545,t,262.0,240.0,169.0,89.0,248.0,116.0,198.0,266.0,9.47,-2.24,1.19,10.25,-1.06,1.25,0.2,0.58,0.72,0.72,0.03,-0.15,-0.06,0.0,1.0,3.0
305,1.740451,t,262.0,240.0,169.0,90.0,248.0,118.0,198.0,265.0,9.47,-2.24,1.2,10.25,-0.69,1.56,0.2,0.58,0.72,0.72,0.01,-0.15,-0.11,0.0,1.0,3.0
306,1.745452,t,262.0,240.0,169.0,90.0,248.0,118.0,198.0,265.0,9.46,-2.24,1.2,10.19,-0.81,1.87,0.2,0.58,0.72,0.72,0.01,-0.17,-0.11,0.0,1.0,3.0
307,1.750453,t,263.0,242.0,169.0,90.0,250.0,118.0,198.0,266.0,9.46,-2.24,1.21,10.31,-0.31,1.81,0.2,0.58,0.72,0.72,0.02,-0.2,-0.13,0.0,1.0,3.0
308,1.756455,t,262.0,240.0,168.0,89.0,250.0,118.0,197.0,264.0,9.46,-2.25,1.21,10.31,-0.37,1.87,0.2,0.58,0.72,0.72,0.07,-0.39,-0.01,0.0,1.0,3.0
309,1.763458,t,262.0,241.0,167.0,89.0,251.0,118.0,197.0,265.0,9.46,-2.25,1.21,9.75,-0.88,1.87,0.2,0.58,0.72,0.72,0.12,-0.56,0.0,0.0,1.0,3.0
310,1.768468,t,264.0,240.0,167.0,89.0,253.0,121.0,198.0,269.0,9.46,-2.26,1.23,7.94,3.44,5.94,0.2,0.58,0.72,0.72,0.15,-1.29,-0.08,0.0,1.0,3.0
311,1.774459,t,265.0,238.0,166.0,86.0,254.0,127.0,198.0,268.0,9.45,-2.27,1.24,8.94,5.0,8.0,0.19,0.58,0.73,0.73,0.14,-1.41,-0.15,0.0,1.0,3.0
312,1.77946,t,270.0,235.0,164.0,85.0,258.0,130.0,199.0,269.0,9.45,-2.29,1.25,10.63,5.87,10.19,0.19,0.58,0.73,0.73,0.14,-1.56,-0.31,0.0,1.0,3.0
313,1.784472,t,274.0,234.0,163.0,84.0,264.0,129.0,202.0,271.0,9.44,-2.31,1.27,13.25,7.0,12.88,0.19,0.58,0.73,0.73,0.19,-2.35,-1.14,0.0,1.0,3.0
314,1.790473,t,278.0,231.0,163.0,83.0,270.0,134.0,206.0,270.0,9.42,-2.36,1.31,25.81,7.94,20.37,0.19,0.58,0.73,0.73,0.25,-2.64,-1.52,0.0,1.0,3.0
315,1.795474,t,293.0,228.0,164.0,85.0,282.0,143.0,210.0,294.0,9.39,-2.43,1.38,50.38,10.38,29.87,0.18,0.58,0.73,0.73,0.58,-3.15,-2.49,0.0,1.0,3.0
316,1.801481,t,298.0,231.0,164.0,84.0,289.0,145.0,214.0,300.0,9.38,-2.47,1.43,66.31,10.56,35.38,0.17,0.58,0.74,0.74,0.57,-3.06,-2.3,0.0,1.0,3.0
317,1.807466,t,305.0,230.0,166.0,81.0,297.0,145.0,220.0,310.0,9.36,-2.51,1.48,88.12,10.31,51.06,0.16,0.58,0.74,0.74,1.01,-2.11,-1.75,0.0,1.0,3.0
318,1.813468,t,316.0,229.0,164.0,80.0,301.0,154.0,228.0,319.0,9.3,-2.65,1.59,89.62,12.13,61.31,0.15,0.57,0.75,0.75,1.09,-0.97,-1.28,0.0,1.0,3.0
319,1.818469,t,319.0,223.0,168.0,78.0,309.0,161.0,234.0,328.0,9.22,-2.85,1.71,72.81,13.56,82.0,0.12,0.57,0.76,0.76,0.68,-0.84,-0.78,0.0,1.0,3.0
320,1.824481,t,336.0,232.0,176.0,75.0,337.0,168.0,246.0,331.0,9.17,-2.97,1.76,59.63,6.06,96.31,0.12,0.57,0.76,0.76,0.67,-0.84,-0.57,0.0,1.0,3.0
321,1.829482,t,341.0,239.0,182.0,74.0,352.0,165.0,258.0,333.0,9.06,-3.25,1.83,55.06,1.75,100.75,0.11,0.56,0.76,0.76,0.52,-0.7,-0.59,0.0,1.0,3.0
322,1.834483,t,346.0,258.0,190.0,74.0,363.0,163.0,275.0,334.0,9.0,-3.39,1.86,50.31,-3.37,104.12,0.1,0.56,0.77,0.77,0.12,-0.88,-0.46,0.0,1.0,3.0
323,1.840474,t,354.0,266.0,197.0,72.0,388.0,154.0,292.0,338.0,8.94,-3.54,1.86,42.06,-11.06,105.69,0.09,0.56,0.77,0.77,-0.23,-1.78,-0.45,0.0,1.0,3.0
324,1.846475,t,390.0,301.0,204.0,73.0,442.0,159.0,338.0,371.0,8.82,-3.85,1.84,25.81,-23.0,109.12,0.06,0.56,0.77,0.77,0.55,-2.58,-0.49,0.0,1.0,3.0
325,1.853489,t,413.0,303.0,202.0,72.0,441.0,154.0,340.0,362.0,8.75,-4.02,1.82,22.81,-25.0,112.75,0.05,0.56,0.77,0.77,1.65,-2.87,-0.28,0.0,1.0,3.0
326,1.859478,t,416.0,308.0,204.0,71.0,464.0,158.0,344.0,369.0,8.68,-4.19,1.79,23.87,-26.37,127.19,0.04,0.55,0.77,0.77,2.21,-2.49,-0.59,0.0,1.0,3.0
327,1.864479,t,431.0,314.0,203.0,72.0,511.0,165.0,370.0,388.0,8.39,-4.75,1.75,36.31,-23.5,138.94,0.02,0.55,0.77,0.77,2.88,-1.38,-0.31,0.0,1.0,3.0
328,1.870481,t,444.0,331.0,200.0,71.0,511.0,165.0,365.0,378.0,8.28,-4.94,1.75,35.94,-18.94,141.0,0.01,-0.54,-0.77,-0.77,2.39,-0.7,0.15,0.0,1.0,3.0
329,1.876482,t,455.0,354.0,199.0,71.0,511.0,184.0,369.0,381.0,8.16,-5.13,1.76,24.37,-17.75,142.19,0.02,-0.54,-0.77,-0.77,2.18,-0.21,0.14,0.0,1.0,3.0
330,1.881483,t,462.0,366.0,191.0,71.0,511.0,191.0,378.0,385.0,7.91,-5.51,1.74,16.56,-18.62,140.62,0.03,-0.54,-0.77,-0.77,2.04,-0.41,0.28,0.0,1.0,3.0
331,1.887485,t,500.0,404.0,188.0,69.0,511.0,221.0,383.0,408.0,7.66,-5.88,1.68,1.25,-29.19,137.25,0.06,-0.53,-0.76,-0.76,0.52,-0.47,-0.02,0.0,1.0,3.0
332,1.892496,t,497.0,410.0,183.0,68.0,511.0,230.0,386.0,421.0,7.53,-6.05,1.64,-2.37,-38.0,131.81,0.07,-0.53,-0.76,-0.76,0.69,-0.32,-0.5,0.0,1.0,3.0
333,1.897497,t,501.0,418.0,178.0,69.0,511.0,241.0,386.0,418.0,7.27,-6.39,1.54,-0.44,-40.19,130.62,0.08,-0.53,-0.76,-0.76,1.06,-0.15,-0.64,0.0,1.0,3.0
334,1.903499,t,500.0,419.0,177.0,68.0,511.0,246.0,387.0,425.0,7.14,-6.55,1.49,3.56,-41.5,129.25,0.09,-0.53,-0.75,-0.75,1.06,0.26,-0.53,0.0,1.0,3.0
335,1.909502,t,502.0,430.0,183.0,69.0,511.0,257.0,378.0,430.0,6.88,-6.84,1.39,5.81,-46.06,120.44,0.11,-0.53,-0.75,-0.75,0.45,0.74,-0.45,0.0,1.0,3.0
336,1.916502,t,504.0,434.0,184.0,68.0,511.0,270.0,382.0,428.0,6.75,-6.98,1.34,6.56,-49.19,116.37,0.13,-0.53,-0.74,-0.74,0.29,0.95,-0.19,0.0,1.0,3.0
337,1.921492,t,504.0,437.0,184.0,69.0,511.0,278.0,378.0,430.0,6.5,-7.23,1.24,4.94,-54.75,110.5,0.14,-0.52,-0.74,-0.74,0.27,0.93,-0.12,0.0,1.0,3.0
338,1.927504,t,496.0,438.0,182.0,68.0,511.0,282.0,378.0,428.0,6.38,-7.35,1.18,5.81,-56.69,108.75,0.16,-0.53,-0.73,-0.73,0.15,1.0,-0.21,0.0,1.0,3.0
339,1.933495,t,499.0,444.0,175.0,68.0,511.0,294.0,387.0,421.0,6.13,-7.57,1.07,6.62,-58.19,102.81,0.17,-0.53,-0.73,-0.73,0.0,1.04,-0.36,0.0,1.0,3.0
340,1.938496,t,500.0,450.0,168.0,67.0,511.0,300.0,385.0,434.0,6.01,-7.67,1.02,11.0,-56.94,92.44,0.18,-0.53,-0.72,-0.72,-0.73,1.62,-0.23,0.0,1.0,3.0
341,1.943497,t,490.0,454.0,163.0,70.0,511.0,318.0,400.0,457.0,5.9,-7.76,0.98,12.31,-57.81,86.56,0.19,-0.53,-0.71,-0.71,-0.63,2.01,-0.34,0.0,1.0,3.0
342,1.949509,t,497.0,452.0,154.0,68.0,511.0,316.0,392.0,461.0,5.69,-8.0,0.85,10.75,-56.88,72.5,0.21,-0.53,-0.71,-0.71,-0.47,2.22,-0.31,0.0,1.0,3.0
343,1.9555,t,492.0,442.0,148.0,69.0,511.0,317.0,400.0,476.0,5.52,-8.06,0.82,10.63,-54.63,65.87,0.22,-0.53,-0.7,-0.7,-0.36,1.99,-0.34,0.0,1.0,3.0
344,1.962501,t,492.0,442.0,142.0,68.0,511.0,325.0,402.0,482.0,5.44,-8.11,0.78,12.19,-55.31,62.31,0.23,-0.53,-0.7,-0.7,-0.35,2.02,-0.66,0.0,1.0,3.0
345,1.967502,t,478.0,396.0,141.0,69.0,511.0,336.0,417.0,511.0,5.29,-8.21,0.73,16.87,-54.44,53.38,0.24,-0.53,-0.69,-0.69,-0.47,2.11,-0.59,0.0,1.0,3.0
346,1.972514,t,477.0,387.0,140.0,68.0,511.0,328.0,403.0,485.0,5.23,-8.25,0.71,20.44,-54.06,47.69,0.24,-0.53,-0.69,-0.69,-0.45,2.42,-0.66,0.0,1.0,3.0
347,1.978516,t,466.0,376.0,134.0,69.0,511.0,328.0,406.0,487.0,5.14,-8.32,0.68,24.94,-53.81,35.19,0.26,-0.54,-0.68,-0.68,-0.74,2.49,-0.6,0.0,1.0,3.0
348,1.983517,t,450.0,369.0,130.0,69.0,511.0,333.0,406.0,486.0,5.1,-8.34,0.67,26.31,-53.38,29.75,0.26,-0.54,-0.68,-0.68,-0.83,2.41,-0.56,0.0,1.0,3.0
349,1.988518,t,464.0,361.0,124.0,69.0,511.0,328.0,419.0,495.0,5.07,-8.36,0.66,24.31,-52.5,19.75,0.27,-0.54,-0.68,-0.68,-0.91,2.27,-0.55,0.0,1.0,3.0
350,1.994509,t,445.0,353.0,122.0,69.0,511.0,322.0,426.0,505.0,5.02,-8.39,0.63,22.37,-52.75,11.88,0.28,-0.55,-0.68,-0.68,-1.31,1.85,-0.45,0.0,1.0,3.0
351,2.000522,t,439.0,323.0,122.0,69.0,511.0,301.0,436.0,511.0,5.02,-8.4,0.6,18.12,-53.88,7.87,0.28,-0.55,-0.67,-0.67,-1.1,1.57,-0.58,0.0,1.0,3.0
352,2.006511,t,430.0,309.0,122.0,68.0,511.0,286.0,444.0,511.0,5.02,-8.4,0.58,15.88,-54.75,3.31,0.28,-0.55,-0.67,-0.67,-1.07,1.2,-0.51,0.0,1.0,3.0
353,2.012517,t,425.0,304.0,123.0,69.0,511.0,286.0,475.0,511.0,5.02,-8.4,0.56,15.31,-53.63,-0.06,0.29,-0.56,-0.67,-0.67,-0.81,1.06,-0.71,0.0,1.0,3.0
354,2.017524,t,425.0,300.0,125.0,69.0,511.0,278.0,490.0,511.0,5.04,-8.39,0.51,16.06,-48.69,-5.0,0.29,-0.56,-0.66,-0.66,-0.85,0.88,-0.29,0.0,1.0,3.0
355,2.022526,t,423.0,298.0,125.0,69.0,511.0,267.0,511.0,511.0,5.06,-8.38,0.47,14.81,-47.94,-5.5,0.29,-0.57,-0.66,-0.66,-0.68,0.41,-0.27,0.0,1.0,3.0
356,2.028529,t,434.0,303.0,125.0,69.0,511.0,255.0,492.0,511.0,5.08,-8.37,0.46,15.5,-46.06,-6.25,0.3,-0.57,-0.66,-0.66,-0.58,0.16,-0.01,0.0,1.0,3.0
357,2.034518,t,434.0,302.0,130.0,69.0,511.0,246.0,499.0,511.0,5.09,-8.36,0.44,15.69,-40.56,-6.31,0.3,-0.57,-0.66,-0.66,-0.5,-0.42,0.43,0.0,1.0,3.0
358,2.03953,t,436.0,306.0,133.0,69.0,511.0,248.0,506.0,511.0,5.13,-8.34,0.42,19.31,-33.69,-7.06,0.3,-0.58,-0.65,-0.65,-0.68,0.29,0.33,0.0,1.0,3.0
359,2.045531,t,438.0,316.0,129.0,68.0,511.0,248.0,502.0,511.0,5.14,-8.33,0.42,18.44,-31.75,-8.5,0.31,-0.58,-0.65,-0.65,-0.59,0.39,0.36,0.0,1.0,3.0
360,2.050532,t,438.0,319.0,120.0,68.0,511.0,254.0,490.0,511.0,5.16,-8.32,0.41,11.5,-28.19,-13.38,0.31,-0.58,-0.65,-0.65,-0.45,0.54,0.68,0.0,1.0,3.0
361,2.056523,t,438.0,328.0,114.0,68.0,511.0,260.0,488.0,511.0,5.21,-8.29,0.39,9.44,-26.31,-16.06,0.31,-0.58,-0.65,-0.65,-0.45,0.71,0.67,0.0,1.0,3.0
362,2.063524,t,436.0,325.0,113.0,68.0,511.0,262.0,451.0,508.0,5.27,-8.25,0.37,2.75,-20.81,-24.25,0.31,-0.59,-0.65,-0.65,-0.83,1.67,0.99,0.0,1.0,3.0
363,2.069525,t,425.0,335.0,110.0,69.0,511.0,283.0,431.0,502.0,5.32,-8.23,0.35,-3.87,-17.25,-30.75,0.31,-0.59,-0.65,-0.65,-0.9,1.86,1.4,0.0,1.0,3.0
364,2.074526,t,427.0,349.0,101.0,69.0,511.0,289.0,420.0,502.0,5.37,-8.19,0.31,-16.06,-13.69,-37.44,0.3,-0.6,-0.65,-0.65,0.06,-0.3,0.76,0.0,1.0,3.0
365,2.080529,t,434.0,358.0,93.0,68.0,511.0,300.0,414.0,509.0,5.43,-8.16,0.26,-33.69,-14.5,-36.63,0.3,-0.6,-0.65,-0.65,1.61,-3.62,0.47,0.0,1.0,3.0
366,2.085529,t,447.0,356.0,94.0,68.0,511.0,306.0,400.0,506.0,5.56,-8.07,0.1,-21.44,-14.75,-26.19,0.29,-0.6,-0.65,-0.65,1.79,-3.71,0.45,0.0,1.0,3.0
367,2.09053,t,457.0,356.0,93.0,68.0,511.0,300.0,382.0,486.0,5.59,-8.05,0.07,-11.63,-9.94,-26.5,0.29,-0.61,-0.65,-0.65,2.23,-4.24,0.11,0.0,1.0,3.0
368,2.096543,t,461.0,355.0,93.0,68.0,511.0,302.0,360.0,463.0,5.63,-8.02,0.06,-0.81,-6.06,-26.12,0.29,-0.61,-0.65,-0.65,2.55,-5.08,-0.47,0.0,1.0,3.0
369,2.101545,t,462.0,360.0,94.0,68.0,511.0,293.0,343.0,417.0,5.67,-8.0,0.09,18.44,-3.19,-25.12,0.29,-0.61,-0.65,-0.65,3.1,-0.88,2.12,0.0,1.0,3.0
370,2.106547,t,392.0,346.0,94.0,70.0,511.0,293.0,334.0,353.0,5.78,-7.91,0.23,43.88,-8.81,-34.13,0.29,-0.61,-0.65,-0.65,1.78,0.49,0.81,0.0,1.0,3.0
371,2.112548,t,359.0,343.0,94.0,69.0,511.0,282.0,346.0,330.0,5.84,-7.86,0.3,47.56,-1.75,-43.38,0.29,-0.61,-0.66,-0.66,1.49,2.17,0.42,0.0,1.0,3.0
372,2.117551,t,322.0,342.0,90.0,67.0,491.0,266.0,345.0,316.0,5.92,-7.8,0.35,38.69,7.06,-56.81,0.29,-0.61,-0.66,-0.66,1.38,3.64,0.03,0.0,1.0,3.0
373,2.12255,t,313.0,354.0,94.0,67.0,422.0,252.0,348.0,324.0,6.01,-7.56,0.45,8.13,15.63,-80.12,0.28,-0.61,-0.67,-0.67,2.95,4.71,0.2,0.0,1.0,3.0
374,2.128542,t,336.0,394.0,110.0,68.0,360.0,247.0,344.0,326.0,6.34,-7.46,0.43,-28.87,16.44,-93.44,0.27,-0.61,-0.67,-0.67,3.41,3.67,0.26,0.0,1.0,3.0
375,2.13454,t,354.0,406.0,102.0,68.0,348.0,256.0,346.0,335.0,6.46,-7.36,0.42,-28.87,16.44,-93.44,0.26,-0.62,-0.67,-0.67,3.92,1.93,-0.17,0.0,1.0,3.0
376,2.141542,t,360.0,424.0,109.0,69.0,335.0,255.0,347.0,340.0,6.58,-7.25,0.38,-48.06,18.81,-99.56,0.26,-0.62,-0.67,-0.67,3.85,1.34,0.22,0.0,1.0,3.0
377,2.146543,t,370.0,446.0,124.0,68.0,310.0,258.0,352.0,346.0,6.85,-7.0,0.31,-41.19,34.75,-124.06,0.23,-0.62,-0.68,-0.68,4.96,0.61,-0.16,0.0,1.0,3.0
378,2.152555,t,361.0,465.0,127.0,69.0,304.0,257.0,352.0,349.0,7.15,-6.7,0.32,-28.0,34.13,-129.31,0.22,-0.63,-0.69,-0.69,4.44,0.56,-0.35,0.0,1.0,3.0
379,2.157546,t,364.0,474.0,130.0,69.0,307.0,254.0,353.0,362.0,7.29,-6.54,0.33,-19.75,31.19,-127.94,0.21,-0.63,-0.69,-0.69,3.77,0.34,-0.6,0.0,1.0,3.0
380,2.163547,t,368.0,486.0,136.0,69.0,305.0,252.0,352.0,365.0,7.43,-6.39,0.35,-14.06,25.69,-121.62,0.2,-0.63,-0.69,-0.69,2.66,0.28,-0.71,0.0,1.0,3.0
381,2.168548,t,373.0,511.0,136.0,68.0,296.0,251.0,347.0,368.0,7.66,-6.1,0.39,0.62,13.56,-107.62,0.18,-0.64,-0.7,-0.7,1.48,0.77,-0.84,0.0,1.0,3.0
382,2.17456,t,375.0,511.0,135.0,68.0,295.0,250.0,346.0,375.0,7.77,-5.96,0.41,7.94,9.5,-105.06,0.17,-0.64,-0.7,-0.7,0.85,1.83,-1.38,0.0,1.0,3.0
383,2.180561,t,373.0,511.0,138.0,70.0,293.0,255.0,350.0,379.0,7.98,-5.67,0.44,7.75,7.19,-106.25,0.16,-0.64,-0.7,-0.7,0.58,2.03,-1.47,0.0,1.0,3.0
384,2.185565,t,385.0,508.0,139.0,69.0,290.0,257.0,341.0,394.0,8.19,-5.36,0.47,5.44,2.0,-111.25,0.15,-0.64,-0.71,-0.71,0.52,2.01,-1.84,0.0,1.0,3.0
385,2.190564,t,390.0,511.0,140.0,68.0,277.0,246.0,329.0,378.0,8.29,-5.2,0.47,6.62,-1.75,-113.62,0.15,-0.65,-0.71,-0.71,0.61,1.54,-1.59,0.0,1.0,3.0
386,2.196554,t,392.0,511.0,143.0,69.0,277.0,240.0,316.0,374.0,8.4,-5.03,0.46,5.56,-7.56,-116.69,0.13,-0.65,-0.71,-0.71,1.0,0.71,-1.43,0.0,1.0,3.0
387,2.201555,t,392.0,511.0,148.0,70.0,275.0,233.0,305.0,386.0,8.6,-4.68,0.43,8.06,-15.31,-120.06,0.13,-0.65,-0.71,-0.71,1.08,0.98,-0.44,0.0,1.0,3.0
388,2.207557,t,393.0,504.0,169.0,75.0,276.0,221.0,300.0,384.0,8.79,-4.32,0.39,11.38,-19.94,-118.69,0.11,-0.66,-0.71,-0.71,1.05,0.72,-0.27,0.0,1.0,3.0
389,2.212558,t,391.0,498.0,177.0,74.0,274.0,213.0,292.0,375.0,8.87,-4.14,0.37,13.13,-18.56,-117.56,0.11,-0.66,-0.71,-0.71,1.17,1.0,-0.19,0.0,1.0,3.0
390,2.218559,t,393.0,499.0,194.0,75.0,274.0,200.0,287.0,372.0,8.95,-3.96,0.36,13.25,-15.81,-114.75,0.09,-0.67,-0.71,-0.71,1.29,1.25,-0.23,0.0,1.0,3.0
391,2.22356,t,404.0,491.0,218.0,74.0,267.0,173.0,289.0,376.0,9.17,-3.44,0.32,7.94,-9.94,-110.94,0.08,-0.67,-0.71,-0.71,-0.75,0.21,-1.24,0.0,1.0,3.0
392,2.229562,t,407.0,501.0,235.0,74.0,250.0,166.0,276.0,386.0,9.24,-3.26,0.3,9.75,-14.63,-110.87,0.08,-0.68,-0.71,-0.71,-1.69,-0.6,-1.35,0.0,1.0,3.0
393,2.234574,t,425.0,511.0,253.0,72.0,231.0,156.0,269.0,386.0,9.3,-3.08,0.27,13.94,-25.0,-112.94,0.06,-0.68,-0.71,-0.71,-2.99,-0.7,-0.87,0.0,1.0,3.0
394,2.240565,t,436.0,511.0,282.0,73.0,216.0,141.0,262.0,385.0,9.36,-2.9,0.21,20.19,-38.94,-112.87,0.06,-0.69,-0.71,-0.71,2.26,1.36,-0.03,0.0,1.0,3.0
395,2.246567,t,457.0,511.0,329.0,70.0,195.0,131.0,270.0,390.0,9.51,-2.36,0.0,20.44,-44.19,-107.81,0.05,-0.7,-0.71,-0.71,-0.24,-0.22,0.1,0.0,1.0,3.0
396,2.251567,t,454.0,511.0,337.0,72.0,191.0,137.0,278.0,409.0,9.55,-2.2,-0.05,18.81,-41.31,-99.75,0.05,-0.7,-0.7,-0.7,-0.15,-0.68,0.12,0.0,1.0,3.0
397,2.258568,t,454.0,511.0,344.0,73.0,178.0,130.0,273.0,398.0,9.58,-2.05,-0.1,18.62,-34.13,-92.69,0.04,-0.7,-0.7,-0.7,-0.24,-1.53,-0.52,0.0,1.0,3.0
398,2.264569,t,458.0,511.0,342.0,71.0,170.0,122.0,259.0,398.0,9.64,-1.78,-0.17,9.25,-22.69,-77.44,0.03,-0.71,-0.7,-0.7,-0.88,-1.71,-0.31,0.0,1.0,3.0
399,2.269581,t,447.0,507.0,346.0,74.0,166.0,120.0,264.0,395.0,9.66,-1.66,-0.21,7.0,-21.94,-68.5,0.03,-0.71,-0.7,-0.7,-1.63,-0.67,0.08,0.0,1.0,3.0
400,2.275583,t,446.0,503.0,358.0,74.0,161.0,119.0,273.0,407.0,9.69,-1.46,-0.28,2.06,-21.87,-59.13,0.02,-0.71,-0.7,-0.7,-1.73,-0.68,0.0,0.0,1.0,3.0
401,2.280584,t,442.0,498.0,370.0,75.0,163.0,118.0,293.0,426.0,9.7,-1.37,-0.32,-0.5,-23.69,-55.0,0.02,-0.71,-0.69,-0.69,-1.89,-1.02,-0.12,0.0,1.0,3.0
402,2.286575,t,443.0,492.0,374.0,74.0,161.0,113.0,300.0,416.0,9.71,-1.28,-0.37,-1.06,-27.75,-51.13,0.02,-0.72,-0.69,-0.69,-1.75,-1.12,0.05,0.0,1.0,3.0
403,2.291587,t,446.0,511.0,383.0,74.0,166.0,125.0,333.0,431.0,9.73,-1.05,-0.47,-0.5,-13.44,-42.25,0.01,-0.72,-0.69,-0.69,-1.89,-1.57,-0.59,0.0,1.0,3.0
404,2.297588,t,456.0,511.0,391.0,73.0,170.0,134.0,332.0,446.0,9.74,-0.99,-0.48,2.75,-6.62,-37.44,0.01,-0.72,-0.69,-0.69,-1.56,-1.81,-0.84,0.0,1.0,3.0
405,2.302589,t,458.0,511.0,396.0,74.0,175.0,140.0,313.0,469.0,9.74,-0.93,-0.49,5.81,-3.75,-33.44,0.01,-0.72,-0.69,-0.69,-1.24,-2.24,-1.22,0.0,1.0,3.0
406,2.30759,t,467.0,511.0,401.0,74.0,180.0,148.0,319.0,478.0,9.75,-0.84,-0.49,21.12,-2.56,-27.87,0.01,-0.72,-0.69,-0.69,-1.11,-1.81,-1.22,0.0,1.0,3.0
407,2.312591,t,478.0,511.0,410.0,75.0,185.0,154.0,330.0,484.0,9.76,-0.8,-0.49,26.25,-4.25,-24.75,0.01,-0.72,-0.69,-0.69,-0.86,-2.34,-1.4,0.0,1.0,3.0
408,2.318593,t,476.0,511.0,421.0,76.0,186.0,157.0,337.0,486.0,9.76,-0.76,-0.5,29.0,-1.75,-17.37,0.02,-0.72,-0.69,-0.69,-0.76,-2.13,-0.79,0.0,1.0,3.0
409,2.323596,t,490.0,511.0,451.0,80.0,204.0,161.0,353.0,511.0,9.76,-0.69,-0.5,32.88,-4.31,-15.06,0.02,-0.72,-0.69,-0.69,0.0,-1.39,-0.76,0.0,1.0,3.0
410,2.329597,t,488.0,511.0,466.0,80.0,204.0,163.0,359.0,511.0,9.77,-0.66,-0.51,36.19,-6.62,-18.5,0.02,-0.72,-0.69,-0.69,0.46,-0.93,-1.04,0.0,1.0,3.0
411,2.336598,t,491.0,511.0,470.0,80.0,210.0,164.0,366.0,511.0,9.77,-0.63,-0.51,36.81,-6.44,-22.56,0.02,-0.73,-0.69,-0.69,0.84,-0.52,-1.13,0.0,1.0,3.0
412,2.3426,t,499.0,511.0,477.0,78.0,215.0,166.0,370.0,511.0,9.77,-0.59,-0.51,34.13,-1.44,-27.31,0.02,-0.72,-0.69,-0.69,1.35,0.7,-1.09,0.0,1.0,3.0
413,2.347601,t,505.0,511.0,480.0,77.0,237.0,170.0,380.0,511.0,9.78,-0.42,-0.49,28.37,0.13,-38.69,0.02,-0.72,-0.69,-0.69,2.67,1.51,-0.63,0.0,1.0,3.0
414,2.352602,t,511.0,511.0,483.0,81.0,242.0,172.0,383.0,511.0,9.78,-0.35,-0.5,25.75,-4.5,-40.5,0.02,-0.72,-0.69,-0.69,4.27,1.35,-0.65,0.0,1.0,3.0
415,2.358604,t,511.0,511.0,501.0,83.0,250.0,176.0,390.0,511.0,9.78,-0.28,-0.5,19.44,-1.25,-39.44,0.02,-0.73,-0.69,-0.69,4.8,0.01,-1.03,0.0,1.0,3.0
416,2.363605,t,511.0,511.0,501.0,81.0,242.0,173.0,392.0,511.0,9.79,-0.16,-0.5,14.44,5.06,-35.94,0.02,-0.72,-0.69,-0.69,4.36,-0.67,-1.54,0.0,1.0,3.0
417,2.369606,t,511.0,511.0,501.0,85.0,240.0,170.0,392.0,511.0,9.79,-0.11,-0.48,11.06,8.63,-30.94,0.02,-0.72,-0.69,-0.69,3.67,-0.85,-1.71,0.0,1.0,3.0
418,2.375607,t,511.0,511.0,499.0,85.0,237.0,169.0,391.0,511.0,9.79,-0.03,-0.47,3.87,-3.94,-16.12,0.01,-0.72,-0.69,-0.69,4.45,-2.71,-2.07,0.0,1.0,3.0
419,2.380608,t,511.0,511.0,452.0,87.0,225.0,160.0,370.0,511.0,9.79,0.0,-0.49,0.44,-6.56,-7.87,0.01,-0.72,-0.69,-0.69,5.89,-3.73,-1.72,0.0,1.0,3.0
420,2.38661,t,502.0,511.0,415.0,80.0,246.0,155.0,357.0,511.0,9.79,0.0,-0.51,-3.12,-11.31,3.37,0.01,-0.73,-0.69,-0.69,6.71,-3.75,-1.08,0.0,1.0,3.0
421,2.391611,t,496.0,496.0,366.0,78.0,252.0,145.0,326.0,511.0,9.79,-0.02,-0.52,-12.31,-8.75,16.81,0.01,-0.73,-0.69,-0.69,6.78,-3.95,-0.82,0.0,1.0,3.0
422,2.397612,t,470.0,423.0,317.0,81.0,262.0,138.0,299.0,494.0,9.79,-0.07,-0.51,-43.69,19.81,48.44,0.02,-0.72,-0.69,-0.69,5.48,-6.76,1.22,0.0,1.0,3.0
423,2.402613,t,390.0,346.0,229.0,79.0,277.0,152.0,277.0,437.0,9.79,-0.41,-0.33,-71.44,57.06,88.94,0.02,-0.72,-0.69,-0.69,3.62,-7.91,0.38,0.0,1.0,3.0
424,2.408615,t,354.0,323.0,209.0,80.0,280.0,164.0,272.0,426.0,9.78,-0.58,-0.21,-60.44,72.87,103.44,0.02,-0.71,-0.7,-0.7,1.82,-7.18,-2.31,0.0,1.0,3.0
425,2.414616,t,347.0,306.0,211.0,79.0,286.0,168.0,275.0,418.0,9.77,-0.76,-0.08,-25.56,79.56,110.5,0.02,-0.71,-0.7,-0.7,2.24,-5.91,-2.68,0.0,1.0,3.0
426,2.419617,t,354.0,295.0,206.0,75.0,290.0,168.0,279.0,409.0,9.75,-0.97,0.04,20.12,78.06,121.25,0.04,-0.7,-0.71,-0.71,1.79,-2.5,-1.93,0.0,1.0,3.0
427,2.424618,t,424.0,287.0,178.0,73.0,339.0,170.0,298.0,420.0,9.64,-1.74,0.42,41.19,55.56,170.31,0.07,-0.69,-0.72,-0.72,2.07,-1.42,-2.7,0.0,1.0,3.0
428,2.43061,t,460.0,291.0,176.0,72.0,361.0,157.0,301.0,422.0,9.58,-2.03,0.49,14.56,44.75,174.62,0.08,-0.69,-0.72,-0.72,2.41,-1.97,-2.08,0.0,1.0,3.0
429,2.435621,t,475.0,307.0,184.0,72.0,360.0,156.0,296.0,411.0,9.51,-2.31,0.56,8.25,37.69,172.25,0.09,-0.68,-0.72,-0.72,3.08,-1.74,0.05,0.0,1.0,3.0
430,2.440622,t,482.0,319.0,194.0,72.0,372.0,160.0,296.0,394.0,9.43,-2.6,0.66,21.37,10.38,192.69,0.13,-0.67,-0.72,-0.72,4.45,3.03,3.46,0.0,1.0,3.0
431,2.446623,t,464.0,324.0,194.0,72.0,374.0,175.0,304.0,382.0,9.12,-3.52,0.68,-0.19,12.63,198.87,0.14,-0.67,-0.72,-0.72,1.27,2.47,3.48,0.0,1.0,3.0
432,2.451625,t,444.0,317.0,180.0,72.0,383.0,185.0,318.0,394.0,9.0,-3.83,0.69,-28.19,16.12,196.94,0.15,-0.67,-0.72,-0.72,0.3,1.9,2.76,0.0,1.0,3.0
433,2.456632,t,410.0,318.0,170.0,73.0,385.0,195.0,302.0,375.0,8.87,-4.12,0.67,-52.25,9.81,186.94,0.17,-0.67,-0.71,-0.71,0.25,2.0,2.56,0.0,1.0,3.0
434,2.46263,t,378.0,311.0,149.0,69.0,377.0,211.0,295.0,369.0,8.6,-4.67,0.56,-77.75,0.13,174.81,0.18,-0.66,-0.7,-0.7,1.16,1.38,-0.48,0.0,1.0,3.0
435,2.467628,t,373.0,327.0,144.0,69.0,378.0,221.0,301.0,380.0,8.3,-5.19,0.41,-68.69,-16.31,174.06,0.19,-0.66,-0.7,-0.7,1.24,1.39,-0.88,0.0,1.0,3.0
436,2.47463,t,362.0,326.0,143.0,70.0,378.0,232.0,305.0,382.0,8.14,-5.44,0.33,-49.81,-20.62,177.25,0.19,-0.66,-0.69,-0.69,1.17,1.79,-1.06,0.0,1.0,3.0
437,2.479631,t,355.0,334.0,145.0,69.0,375.0,258.0,305.0,374.0,7.8,-5.93,0.24,-16.62,-17.0,176.31,0.21,-0.66,-0.68,-0.68,0.05,3.86,1.36,0.0,1.0,3.0
438,2.485635,t,352.0,343.0,142.0,68.0,376.0,263.0,310.0,370.0,7.63,-6.15,0.21,-19.37,-7.69,164.62,0.22,-0.65,-0.68,-0.68,-0.35,4.52,1.94,0.0,1.0,3.0
439,2.490633,t,346.0,344.0,142.0,68.0,375.0,267.0,313.0,362.0,7.46,-6.35,0.18,-13.88,-2.87,145.0,0.24,-0.65,-0.67,-0.67,-2.09,4.75,1.57,0.0,1.0,3.0
440,2.496622,t,334.0,341.0,141.0,68.0,373.0,276.0,315.0,348.0,7.14,-6.71,0.15,-2.87,-2.44,137.31,0.25,-0.65,-0.67,-0.67,-2.71,5.0,1.27,0.0,1.0,3.0
441,2.502636,t,310.0,327.0,144.0,68.0,380.0,287.0,330.0,348.0,6.84,-7.02,0.17,18.69,-4.0,125.5,0.26,-0.64,-0.66,-0.66,-3.29,5.68,-0.09,0.0,1.0,3.0
442,2.507636,t,304.0,325.0,144.0,68.0,377.0,296.0,339.0,351.0,6.69,-7.16,0.19,20.44,-4.0,118.62,0.28,-0.63,-0.66,-0.66,-2.88,6.01,-0.46,0.0,1.0,3.0
443,2.513639,t,309.0,314.0,142.0,68.0,385.0,297.0,353.0,356.0,6.56,-7.28,0.21,4.12,-8.13,101.5,0.28,-0.63,-0.66,-0.66,-2.9,6.7,-0.28,0.0,1.0,3.0
444,2.518627,t,314.0,317.0,131.0,68.0,396.0,300.0,359.0,370.0,6.31,-7.49,0.18,-10.19,-10.88,90.19,0.29,-0.63,-0.65,-0.65,-2.45,6.74,-0.21,0.0,1.0,3.0
445,2.524628,t,310.0,287.0,127.0,69.0,405.0,308.0,376.0,407.0,6.12,-7.65,0.08,-28.12,-16.94,70.69,0.3,-0.63,-0.65,-0.65,-2.4,6.61,0.39,0.0,1.0,3.0
446,2.529629,t,319.0,269.0,130.0,69.0,404.0,298.0,376.0,400.0,6.04,-7.72,0.02,-29.44,-16.75,61.75,0.3,-0.63,-0.64,-0.64,-2.71,5.82,0.81,0.0,1.0,3.0
447,2.535631,t,324.0,246.0,129.0,68.0,416.0,295.0,389.0,423.0,5.97,-7.77,-0.03,-28.0,-16.44,45.63,0.3,-0.63,-0.64,-0.64,-2.77,5.52,0.75,0.0,1.0,3.0
448,2.542633,t,330.0,234.0,130.0,69.0,434.0,288.0,406.0,432.0,5.85,-7.86,-0.13,-27.44,-17.44,38.69,0.3,-0.63,-0.63,-0.63,-2.78,5.23,0.55,0.0,1.0,3.0
449,2.548653,t,326.0,214.0,134.0,68.0,454.0,273.0,461.0,452.0,5.77,-7.91,-0.24,-23.81,-20.06,25.19,0.3,-0.63,-0.63,-0.63,-2.61,4.07,-0.49,0.0,1.0,3.0
450,2.554652,t,323.0,206.0,134.0,69.0,459.0,263.0,473.0,461.0,5.75,-7.93,-0.29,-22.25,-19.12,18.37,0.3,-0.63,-0.62,-0.62,-2.42,3.54,-0.6,0.0,1.0,3.0
451,2.559651,t,325.0,210.0,132.0,69.0,461.0,259.0,488.0,459.0,5.73,-7.94,-0.34,-22.87,-16.31,10.5,0.3,-0.63,-0.62,-0.62,-2.11,2.48,-0.67,0.0,1.0,3.0
452,2.56565,t,331.0,220.0,130.0,68.0,458.0,258.0,482.0,467.0,5.73,-7.94,-0.38,-21.87,-12.56,2.56,0.3,-0.64,-0.62,-0.62,-1.25,1.23,-0.25,0.0,1.0,3.0
453,2.570651,t,332.0,242.0,126.0,69.0,478.0,267.0,502.0,511.0,5.78,-7.9,-0.48,-13.13,-8.31,-21.62,0.3,-0.64,-0.62,-0.62,-0.45,1.21,-0.52,0.0,1.0,3.0
454,2.579654,t,338.0,247.0,126.0,68.0,471.0,255.0,440.0,485.0,5.82,-7.87,-0.5,-11.75,-8.56,-30.25,0.3,-0.64,-0.62,-0.62,0.16,1.1,-1.07,0.0,1.0,3.0
455,2.593657,t,342.0,252.0,131.0,68.0,484.0,255.0,416.0,488.0,5.88,-7.82,-0.53,-12.69,-9.69,-40.5,0.29,-0.64,-0.62,-0.62,0.5,0.74,-1.67,0.0,1.0,3.0
456,2.60866,t,356.0,262.0,118.0,68.0,494.0,263.0,397.0,484.0,6.15,-7.61,-0.58,2.06,-1.81,-80.94,0.28,-0.65,-0.63,-0.63,3.35,-2.58,-1.69,0.0,1.0,3.0
457,2.623724,t,388.0,299.0,101.0,68.0,412.0,270.0,357.0,437.0,6.25,-7.52,-0.55,25.62,-7.87,-82.94,0.28,-0.65,-0.63,-0.63,4.69,-1.73,2.59,0.0,1.0,3.0
458,2.638758,t,392.0,314.0,100.0,69.0,402.0,272.0,344.0,408.0,6.37,-7.43,-0.53,15.63,-2.94,-87.69,0.27,-0.66,-0.63,-0.63,6.22,-1.85,6.45,0.0,1.0,3.0
459,2.653853,t,387.0,341.0,102.0,68.0,368.0,271.0,350.0,392.0,6.64,-7.19,-0.45,14.5,29.19,-112.19,0.26,-0.66,-0.64,-0.64,8.39,-2.64,1.65,0.0,1.0,3.0
460,2.668882,t,364.0,356.0,104.0,69.0,346.0,263.0,349.0,369.0,6.78,-7.06,-0.4,30.69,16.06,-112.75,0.26,-0.66,-0.64,-0.64,7.97,-1.54,2.42,0.0,1.0,3.0
461,2.683939,t,358.0,382.0,126.0,69.0,316.0,257.0,337.0,361.0,7.03,-6.81,-0.35,7.31,3.56,-104.19,0.25,-0.66,-0.65,-0.65,5.03,-0.89,1.03,0.0,1.0,3.0
462,2.698941,t,352.0,381.0,129.0,69.0,310.0,250.0,330.0,360.0,7.15,-6.69,-0.35,0.81,-1.62,-98.75,0.24,-0.67,-0.65,-0.65,4.19,-0.9,1.11,0.0,1.0,3.0
463,2.71302,t,346.0,386.0,133.0,69.0,299.0,249.0,325.0,366.0,7.26,-6.57,-0.36,-2.94,4.75,-95.69,0.23,-0.67,-0.65,-0.65,3.21,-0.16,1.34,0.0,1.0,3.0
464,2.728195,t,343.0,394.0,142.0,69.0,296.0,243.0,314.0,360.0,7.48,-6.33,-0.33,9.44,12.0,-99.56,0.22,-0.67,-0.66,-0.66,2.77,0.38,0.4,0.0,1.0,3.0
465,2.743276,t,333.0,415.0,149.0,68.0,292.0,237.0,336.0,351.0,7.71,-6.04,-0.21,42.5,17.62,-115.31,0.21,-0.67,-0.67,-0.67,2.42,1.01,-0.21,0.0,1.0,3.0
466,2.758399,t,337.0,425.0,147.0,68.0,291.0,236.0,338.0,347.0,7.84,-5.88,-0.14,51.13,10.81,-124.62,0.2,-0.67,-0.67,-0.67,1.33,0.93,-0.86,0.0,1.0,3.0
467,2.773539,t,340.0,434.0,142.0,68.0,288.0,232.0,338.0,339.0,8.08,-5.54,-0.02,51.06,3.94,-124.19,0.2,-0.67,-0.68,-0.68,1.36,0.98,-0.39,0.0,1.0,3.0
468,2.788609,t,346.0,445.0,141.0,68.0,287.0,225.0,338.0,341.0,8.2,-5.37,0.02,48.81,0.75,-122.31,0.19,-0.67,-0.68,-0.68,1.43,0.97,-0.39,0.0,1.0,3.0
469,2.803643,t,351.0,457.0,144.0,69.0,284.0,222.0,330.0,344.0,8.41,-5.03,0.1,42.5,0.44,-117.31,0.18,-0.68,-0.69,-0.69,1.69,1.94,-0.16,0.0,1.0,3.0
470,2.818672,t,354.0,452.0,152.0,69.0,278.0,218.0,318.0,348.0,8.51,-4.86,0.13,35.81,-2.75,-115.5,0.18,-0.68,-0.69,-0.69,1.78,2.3,-0.18,0.0,1.0,3.0
471,2.833729,t,356.0,453.0,160.0,71.0,279.0,216.0,313.0,352.0,8.69,-4.53,0.15,18.0,-2.75,-110.56,0.17,-0.68,-0.69,-0.69,1.01,3.19,-0.25,0.0,1.0,3.0
472,2.848786,t,363.0,457.0,168.0,77.0,280.0,212.0,302.0,354.0,8.78,-4.36,0.16,6.31,-0.88,-110.5,0.16,-0.68,-0.69,-0.69,0.75,2.72,-0.67,0.0,1.0,3.0
473,2.863885,t,369.0,462.0,191.0,78.0,276.0,210.0,297.0,353.0,8.94,-4.01,0.14,-18.81,4.56,-114.69,0.14,-0.69,-0.7,-0.7,-0.1,2.24,-0.97,0.0,1.0,3.0
474,2.878917,t,369.0,458.0,205.0,78.0,274.0,208.0,294.0,356.0,9.02,-3.83,0.14,-27.44,9.94,-118.31,0.13,-0.69,-0.7,-0.7,-0.3,1.46,-1.08,0.0,1.0,3.0
475,2.89395,t,372.0,450.0,211.0,78.0,266.0,212.0,289.0,354.0,9.1,-3.64,0.14,-35.44,4.0,-126.12,0.12,-0.69,-0.7,-0.7,-1.5,0.53,-1.57,0.0,1.0,3.0
476,2.908032,t,369.0,449.0,221.0,80.0,260.0,202.0,287.0,359.0,9.25,-3.24,0.09,-24.37,-16.75,-129.75,0.1,-0.69,-0.7,-0.7,-0.56,-0.83,-1.29,0.0,1.0,3.0
477,2.924062,t,373.0,427.0,241.0,75.0,247.0,170.0,276.0,370.0,9.38,-2.83,0.02,-18.37,-16.06,-125.37,0.08,-0.7,-0.7,-0.7,-0.6,-1.15,-0.91,0.0,1.0,3.0
478,2.939215,t,379.0,419.0,250.0,78.0,241.0,157.0,274.0,372.0,9.44,-2.64,-0.01,-2.62,-16.5,-109.44,0.08,-0.7,-0.7,-0.7,-1.28,-0.99,0.1,0.0,1.0,3.0
479,2.95437,t,385.0,422.0,271.0,78.0,240.0,140.0,268.0,376.0,9.53,-2.29,-0.04,5.81,-1.94,-104.94,0.07,-0.7,-0.7,-0.7,-1.67,0.01,-0.11,0.0,1.0,3.0
480,2.968414,t,406.0,430.0,297.0,77.0,223.0,135.0,266.0,387.0,9.57,-2.13,-0.05,7.94,-7.0,-98.12,0.06,-0.7,-0.7,-0.7,-2.79,0.85,-0.12,0.0,1.0,3.0
481,2.983473,t,410.0,437.0,307.0,75.0,217.0,134.0,272.0,401.0,9.6,-1.97,-0.08,11.88,-21.0,-94.06,0.05,-0.71,-0.7,-0.7,-1.5,0.08,0.88,0.0,1.0,3.0
482,2.998586,t,416.0,440.0,328.0,76.0,190.0,132.0,296.0,386.0,9.67,-1.55,-0.27,6.06,-35.0,-79.44,0.05,-0.71,-0.7,-0.7,-1.05,-0.94,0.55,0.0,1.0,3.0
483,3.013633,t,416.0,446.0,336.0,75.0,178.0,139.0,307.0,382.0,9.69,-1.43,-0.31,-1.56,-20.87,-70.5,0.04,-0.72,-0.69,-0.69,-1.13,-1.39,0.36,0.0,1.0,3.0
484,3.028703,t,424.0,462.0,347.0,75.0,170.0,149.0,315.0,378.0,9.71,-1.32,-0.33,-10.5,-11.19,-63.13,0.03,-0.72,-0.69,-0.69,-1.79,-1.71,0.07,0.0,1.0,3.0
485,3.044708,t,434.0,452.0,356.0,76.0,159.0,148.0,317.0,387.0,9.72,-1.22,-0.34,-28.75,1.69,-57.63,0.03,-0.72,-0.69,-0.69,-2.48,-1.27,-0.45,0.0,1.0,3.0
486,3.058737,t,440.0,460.0,358.0,78.0,153.0,151.0,319.0,398.0,9.74,-1.03,-0.35,-41.44,1.12,-54.75,0.02,-0.72,-0.69,-0.69,-1.88,-1.41,-0.96,0.0,1.0,3.0
487,3.074799,t,447.0,505.0,378.0,78.0,156.0,165.0,337.0,432.0,9.76,-0.85,-0.35,-40.06,0.06,-51.38,0.0,-0.72,-0.69,-0.69,-1.43,-2.06,-1.09,0.0,1.0,3.0
488,3.088835,t,469.0,511.0,379.0,76.0,158.0,166.0,329.0,454.0,9.76,-0.77,-0.36,-24.75,1.69,-37.44,0.0,0.72,0.69,0.69,-1.33,-4.11,-1.04,0.0,1.0,3.0
489,3.103839,t,486.0,511.0,384.0,78.0,162.0,174.0,338.0,462.0,9.77,-0.65,-0.35,-15.81,6.31,-30.19,0.0,0.72,0.69,0.69,-1.7,-5.04,-1.25,0.0,1.0,3.0
490,3.118842,t,494.0,511.0,392.0,78.0,163.0,182.0,345.0,482.0,9.78,-0.61,-0.34,-7.81,9.31,-24.62,0.0,0.72,0.69,0.69,-2.04,-5.48,-1.5,0.0,1.0,3.0
491,3.133845,t,488.0,511.0,402.0,78.0,170.0,191.0,352.0,503.0,9.78,-0.55,-0.3,17.12,6.44,-12.06,0.01,0.72,0.7,0.7,-1.05,-4.21,-1.93,0.0,1.0,3.0
492,3.148849,t,511.0,511.0,415.0,80.0,183.0,191.0,353.0,490.0,9.78,-0.51,-0.28,27.19,0.75,-13.31,0.01,0.72,0.7,0.7,0.03,-3.28,-2.16,0.0,1.0,3.0
493,3.163852,t,511.0,511.0,428.0,80.0,198.0,196.0,358.0,499.0,9.78,-0.49,-0.29,32.94,-3.81,-14.81,0.01,0.72,0.7,0.7,1.03,-2.54,-2.2,0.0,1.0,3.0
494,3.178914,t,511.0,511.0,444.0,80.0,207.0,208.0,380.0,511.0,9.79,-0.46,-0.29,31.5,-2.25,-15.31,0.01,0.72,0.7,0.7,2.26,-1.9,-1.82,0.0,1.0,3.0
495,3.193912,t,511.0,511.0,442.0,80.0,208.0,209.0,372.0,511.0,9.79,-0.44,-0.29,25.19,-6.31,-15.06,0.0,0.72,0.7,0.7,3.02,-1.31,-0.92,0.0,1.0,3.0
496,3.209027,t,511.0,511.0,428.0,75.0,224.0,211.0,368.0,506.0,9.79,-0.36,-0.32,14.44,-6.12,-17.19,0.0,0.72,0.7,0.7,4.24,-0.12,-0.73,0.0,1.0,3.0
497,3.224082,t,511.0,511.0,424.0,74.0,229.0,209.0,360.0,510.0,9.79,-0.33,-0.32,7.81,-0.31,-17.75,0.01,0.72,0.7,0.7,4.1,-0.15,-0.64,0.0,1.0,3.0
498,3.240218,t,511.0,511.0,418.0,78.0,246.0,206.0,354.0,511.0,9.79,-0.3,-0.31,2.81,2.44,-11.0,0.01,0.72,0.7,0.7,4.02,-1.7,-0.75,0.0,1.0,3.0
499,3.253271,t,509.0,477.0,404.0,74.0,249.0,183.0,340.0,508.0,9.79,-0.28,-0.32,4.87,-7.06,-3.44,0.01,0.72,0.7,0.7,4.87,-1.88,-0.36,0.0,1.0,3.0
500,3.268352,t,464.0,452.0,371.0,75.0,254.0,174.0,316.0,458.0,9.79,-0.29,-0.35,2.5,-16.31,5.19,0.01,0.72,0.69,0.69,6.0,-2.32,0.28,0.0,1.0,3.0
501,3.283356,t,441.0,398.0,336.0,76.0,266.0,168.0,304.0,423.0,9.79,-0.31,-0.39,-39.75,8.06,49.38,0.01,0.72,0.69,0.69,5.68,-5.27,0.78,0.0,1.0,3.0
502,3.298469,t,371.0,346.0,239.0,81.0,287.0,177.0,296.0,398.0,9.78,-0.56,-0.34,-54.69,26.25,73.75,0.01,0.72,0.69,0.69,4.68,-6.26,1.5,0.0,1.0,3.0
503,3.313523,t,328.0,326.0,207.0,82.0,284.0,178.0,287.0,373.0,9.77,-0.72,-0.27,-65.25,44.69,95.75,0.01,0.71,0.7,0.7,4.0,-7.54,1.83,0.0,1.0,3.0
504,3.328598,t,311.0,313.0,194.0,80.0,280.0,179.0,275.0,375.0,9.76,-0.91,-0.18,-57.56,56.5,112.06,0.0,0.7,0.7,0.7,3.29,-9.44,-1.32,0.0,1.0,3.0
505,3.34363,t,313.0,291.0,191.0,78.0,279.0,191.0,291.0,394.0,9.74,-1.11,-0.06,40.31,81.19,124.06,0.01,-0.7,-0.71,-0.71,2.31,-8.03,-2.87,0.0,1.0,3.0
506,3.359662,t,373.0,292.0,187.0,72.0,314.0,190.0,308.0,399.0,9.63,-1.81,0.35,85.62,71.81,159.0,0.04,-0.69,-0.72,-0.72,4.51,-1.46,-4.52,0.0,1.0,3.0
507,3.373695,t,388.0,294.0,174.0,71.0,334.0,180.0,308.0,403.0,9.56,-2.09,0.49,73.62,64.69,174.37,0.05,-0.68,-0.72,-0.72,4.29,0.19,-3.3,0.0,1.0,3.0
508,3.388727,t,410.0,293.0,167.0,71.0,343.0,170.0,313.0,395.0,9.49,-2.39,0.6,49.13,55.5,184.06,0.06,-0.68,-0.73,-0.73,4.45,0.9,-2.41,0.0,1.0,3.0
509,3.403817,t,421.0,298.0,171.0,71.0,349.0,169.0,306.0,394.0,9.4,-2.7,0.69,29.87,47.0,189.94,0.09,-0.66,-0.73,-0.73,4.76,2.84,1.0,0.0,1.0,3.0
510,3.418902,t,423.0,306.0,178.0,71.0,375.0,180.0,304.0,358.0,9.06,-3.63,0.83,-12.0,18.31,199.87,0.11,-0.66,-0.73,-0.73,4.12,3.43,1.26,0.0,1.0,3.0
511,3.434011,t,416.0,315.0,179.0,71.0,390.0,185.0,304.0,348.0,8.94,-3.94,0.83,-30.37,8.75,193.94,0.12,-0.66,-0.73,-0.73,-0.19,1.14,1.68,0.0,1.0,3.0
512,3.448161,t,405.0,332.0,168.0,72.0,386.0,198.0,294.0,352.0,8.81,-4.22,0.79,-48.13,-3.56,179.37,0.13,-0.65,-0.72,-0.72,-1.4,0.49,1.47,0.0,1.0,3.0
513,3.463312,t,382.0,330.0,146.0,70.0,388.0,229.0,290.0,354.0,8.56,-4.73,0.64,-73.19,-11.56,164.69,0.15,-0.65,-0.71,-0.71,1.39,0.54,0.34,0.0,1.0,3.0
514,3.478371,t,370.0,334.0,140.0,69.0,395.0,242.0,296.0,358.0,8.28,-5.22,0.49,-65.0,-7.0,164.62,0.16,-0.65,-0.71,-0.71,1.64,0.33,-0.97,0.0,1.0,3.0
515,3.493459,t,364.0,334.0,140.0,68.0,402.0,253.0,289.0,362.0,8.12,-5.46,0.44,-38.19,-8.75,165.37,0.17,-0.65,-0.7,-0.7,1.68,0.3,-1.78,0.0,1.0,3.0
516,3.508635,t,363.0,344.0,140.0,69.0,408.0,262.0,296.0,365.0,7.97,-5.69,0.41,-9.56,-14.56,167.12,0.19,-0.64,-0.7,-0.7,0.95,0.73,-1.74,0.0,1.0,3.0
517,3.523696,t,359.0,364.0,150.0,68.0,415.0,275.0,290.0,361.0,7.64,-6.13,0.4,20.94,-18.81,159.87,0.21,-0.63,-0.69,-0.69,-0.8,3.49,0.12,0.0,1.0,3.0
518,3.539814,t,356.0,369.0,153.0,68.0,421.0,279.0,289.0,350.0,7.48,-6.32,0.4,39.44,-16.87,139.12,0.22,-0.63,-0.69,-0.69,-1.93,4.37,0.32,0.0,1.0,3.0
519,3.553842,t,336.0,374.0,152.0,69.0,420.0,293.0,292.0,343.0,7.18,-6.66,0.46,49.69,-17.44,130.5,0.23,-0.63,-0.69,-0.69,-2.05,5.1,0.21,0.0,1.0,3.0
520,3.568885,t,326.0,381.0,153.0,69.0,438.0,307.0,310.0,338.0,7.04,-6.8,0.5,54.44,-17.5,124.19,0.24,-0.63,-0.68,-0.68,-2.06,5.5,-0.39,0.0,1.0,3.0
521,3.583939,t,327.0,387.0,149.0,68.0,428.0,310.0,317.0,330.0,6.63,-7.19,0.6,41.69,-25.06,108.44,0.27,-0.62,-0.68,-0.68,-2.01,5.76,-1.37,0.0,1.0,3.0
522,3.598078,t,338.0,395.0,147.0,69.0,456.0,311.0,327.0,342.0,6.51,-7.3,0.6,26.87,-30.62,100.44,0.27,-0.61,-0.67,-0.67,-1.89,6.32,-1.3,0.0,1.0,3.0
523,3.613134,t,349.0,398.0,140.0,70.0,493.0,328.0,364.0,370.0,6.39,-7.41,0.58,9.88,-35.19,92.69,0.28,-0.61,-0.67,-0.67,-2.27,6.94,-1.09,0.0,1.0,3.0
524,3.628139,t,360.0,389.0,142.0,68.0,492.0,313.0,349.0,373.0,6.29,-7.5,0.53,-3.06,-39.06,83.69,0.29,-0.61,-0.66,-0.66,-2.6,7.35,-1.51,0.0,1.0,3.0
525,3.644489,t,373.0,382.0,141.0,69.0,508.0,316.0,370.0,383.0,6.12,-7.65,0.38,-23.75,-51.13,64.25,0.29,-0.62,-0.66,-0.66,-2.68,7.29,0.23,0.0,1.0,3.0
526,3.658814,t,382.0,355.0,136.0,68.0,498.0,309.0,397.0,421.0,5.97,-7.76,0.2,-26.19,-50.88,52.88,0.3,-0.62,-0.65,-0.65,-2.64,6.01,0.88,0.0,1.0,3.0
527,3.674847,t,374.0,341.0,141.0,68.0,504.0,300.0,398.0,426.0,5.91,-7.81,0.13,-20.19,-44.94,47.0,0.3,-0.62,-0.65,-0.65,-2.57,5.7,0.76,0.0,1.0,3.0
528,3.688879,t,370.0,326.0,140.0,68.0,506.0,293.0,423.0,427.0,5.86,-7.86,0.07,-13.19,-38.88,41.19,0.3,-0.62,-0.64,-0.64,-2.53,5.48,0.75,0.0,1.0,3.0
529,3.703904,t,377.0,298.0,136.0,69.0,511.0,282.0,469.0,442.0,5.74,-7.94,-0.07,-17.0,-34.44,23.19,0.31,-0.62,-0.63,-0.63,-2.83,4.61,-0.07,0.0,1.0,3.0
530,3.718908,t,372.0,289.0,132.0,68.0,511.0,268.0,483.0,454.0,5.71,-7.96,-0.14,-24.94,-34.38,17.31,0.3,-0.62,-0.63,-0.63,-2.6,4.5,-0.57,0.0,1.0,3.0
531,3.734911,t,383.0,278.0,130.0,68.0,511.0,262.0,511.0,458.0,5.7,-7.97,-0.22,-34.44,-34.0,11.94,0.3,-0.63,-0.63,-0.63,-1.92,4.52,-0.79,0.0,1.0,3.0
532,3.748914,t,382.0,278.0,130.0,68.0,511.0,250.0,511.0,450.0,5.69,-7.97,-0.32,-46.69,-32.63,6.5,0.3,-0.63,-0.63,-0.63,-1.39,3.97,-0.48,0.0,1.0,3.0
533,3.763943,t,390.0,278.0,127.0,69.0,511.0,245.0,511.0,493.0,5.69,-7.96,-0.53,-49.19,-18.56,-8.44,0.29,-0.63,-0.62,-0.62,0.72,-0.01,-0.76,0.0,1.0,3.0
534,3.778986,t,390.0,284.0,125.0,69.0,511.0,247.0,511.0,500.0,5.71,-7.93,-0.68,-38.38,-14.25,-12.63,0.29,-0.64,-0.62,-0.62,1.05,-0.78,-1.35,0.0,1.0,3.0
535,3.794067,t,389.0,289.0,125.0,69.0,511.0,262.0,511.0,511.0,5.73,-7.91,-0.72,-24.31,-11.19,-15.94,0.28,-0.64,-0.62,-0.62,1.05,-0.72,-1.57,0.0,1.0,3.0
536,3.80913,t,397.0,284.0,120.0,70.0,511.0,273.0,511.0,511.0,5.79,-7.87,-0.77,-4.06,-14.19,-23.0,0.28,-0.64,-0.62,-0.62,0.87,-0.59,-2.3,0.0,1.0,3.0
537,3.824154,t,395.0,288.0,113.0,68.0,511.0,263.0,451.0,502.0,5.82,-7.84,-0.78,8.13,-14.44,-29.06,0.28,-0.64,-0.62,-0.62,0.89,-0.12,-2.13,0.0,1.0,3.0
538,3.839251,t,397.0,290.0,109.0,69.0,511.0,272.0,417.0,497.0,5.88,-7.8,-0.77,10.56,-4.56,-55.75,0.28,-0.65,-0.62,-0.62,1.56,-2.66,-1.57,0.0,1.0,3.0
539,3.853398,t,411.0,305.0,105.0,69.0,511.0,270.0,388.0,472.0,6.03,-7.69,-0.74,21.56,-7.19,-65.31,0.27,-0.65,-0.62,-0.62,3.91,-3.07,1.22,0.0,1.0,3.0
540,3.868532,t,385.0,330.0,102.0,69.0,409.0,278.0,322.0,390.0,6.23,-7.54,-0.59,49.75,19.12,-79.87,0.27,-0.65,-0.63,-0.63,4.56,-0.71,5.01,0.0,1.0,3.0
541,3.883591,t,374.0,341.0,100.0,68.0,387.0,278.0,328.0,378.0,6.36,-7.44,-0.49,34.56,46.06,-103.0,0.27,-0.65,-0.63,-0.63,6.9,-2.19,1.79,0.0,1.0,3.0
542,3.89864,t,369.0,349.0,101.0,69.0,359.0,270.0,335.0,359.0,6.5,-7.32,-0.4,34.56,46.06,-103.0,0.25,-0.65,-0.65,-0.65,6.28,-3.84,0.3,0.0,1.0,3.0
543,3.913732,t,351.0,381.0,106.0,69.0,314.0,252.0,332.0,339.0,6.94,-6.91,-0.36,-6.75,2.81,-105.87,0.24,-0.65,-0.65,-0.65,7.95,-3.19,2.57,0.0,1.0,3.0
544,3.928735,t,353.0,390.0,119.0,69.0,302.0,250.0,322.0,338.0,7.06,-6.79,-0.36,-6.75,2.81,-105.87,0.24,-0.66,-0.65,-0.65,6.58,-1.84,2.54,0.0,1.0,3.0
545,3.943824,t,354.0,396.0,133.0,69.0,295.0,244.0,319.0,331.0,7.17,-6.67,-0.37,-14.19,3.12,-93.56,0.23,-0.66,-0.65,-0.65,5.47,-0.72,1.43,0.0,1.0,3.0
546,3.958894,t,336.0,404.0,141.0,69.0,285.0,232.0,314.0,339.0,7.27,-6.56,-0.37,2.06,22.69,-87.69,0.22,-0.66,-0.66,-0.66,1.78,2.36,1.56,0.0,1.0,3.0
547,3.973054,t,334.0,426.0,147.0,70.0,295.0,235.0,326.0,342.0,7.62,-6.15,-0.19,25.69,37.0,-116.19,0.21,-0.66,-0.67,-0.67,1.48,1.4,-0.24,0.0,1.0,3.0
548,3.988099,t,344.0,428.0,141.0,69.0,298.0,242.0,334.0,351.0,7.76,-5.98,-0.12,20.5,37.13,-129.44,0.2,-0.66,-0.67,-0.67,1.22,0.46,-0.56,0.0,1.0,3.0
549,4.004191,t,344.0,438.0,137.0,69.0,296.0,242.0,333.0,349.0,7.9,-5.8,-0.07,13.13,29.94,-136.19,0.18,-0.67,-0.68,-0.68,1.35,0.06,-0.31,0.0,1.0,3.0
550,4.018301,t,346.0,441.0,136.0,70.0,293.0,228.0,304.0,334.0,8.17,-5.41,0.0,16.94,11.38,-140.12,0.17,-0.67,-0.69,-0.69,2.76,0.79,0.14,0.0,1.0,3.0
551,4.034425,t,362.0,455.0,140.0,71.0,276.0,221.0,305.0,344.0,8.41,-5.04,0.03,19.0,-3.5,-127.69,0.16,-0.67,-0.69,-0.69,2.59,1.07,0.2,0.0,1.0,3.0
552,4.048531,t,364.0,452.0,142.0,74.0,273.0,218.0,295.0,342.0,8.51,-4.86,0.04,19.5,-7.56,-120.94,0.16,-0.67,-0.69,-0.69,2.46,1.38,0.12,0.0,1.0,3.0
553,4.063612,t,366.0,449.0,150.0,78.0,267.0,218.0,291.0,343.0,8.61,-4.69,0.04,16.87,-9.31,-115.56,0.14,-0.68,-0.69,-0.69,1.77,2.48,-0.32,0.0,1.0,3.0
554,4.078655,t,368.0,456.0,169.0,80.0,262.0,214.0,284.0,344.0,8.78,-4.35,0.05,9.5,2.56,-112.06,0.14,-0.68,-0.7,-0.7,1.04,2.57,-0.61,0.0,1.0,3.0
555,4.093684,t,368.0,454.0,176.0,78.0,260.0,212.0,282.0,345.0,8.86,-4.18,0.07,-0.69,8.56,-114.62,0.12,-0.68,-0.7,-0.7,0.52,1.8,-0.82,0.0,1.0,3.0
556,4.108716,t,374.0,456.0,181.0,79.0,265.0,212.0,282.0,347.0,9.02,-3.83,0.09,-8.0,8.13,-115.44,0.12,-0.68,-0.7,-0.7,0.55,1.08,-1.18,0.0,1.0,3.0
557,4.123743,t,378.0,457.0,197.0,79.0,278.0,216.0,278.0,355.0,9.17,-3.46,0.09,-19.56,8.13,-117.37,0.1,-0.69,-0.7,-0.7,1.14,0.74,-1.09,0.0,1.0,3.0
558,4.139805,t,380.0,469.0,207.0,78.0,276.0,219.0,277.0,355.0,9.24,-3.28,0.09,-23.87,11.06,-116.12,0.08,-0.69,-0.71,-0.71,0.0,0.15,-1.21,0.0,1.0,3.0
559,4.153835,t,391.0,460.0,223.0,80.0,280.0,209.0,282.0,362.0,9.3,-3.09,0.1,-21.25,7.31,-113.94,0.08,-0.69,-0.71,-0.71,-1.19,-1.22,-1.38,0.0,1.0,3.0
560,4.168894,t,390.0,447.0,234.0,77.0,274.0,199.0,281.0,366.0,9.41,-2.73,0.09,-14.81,-0.06,-112.44,0.07,-0.69,-0.71,-0.71,-1.19,-0.29,-0.91,0.0,1.0,3.0
561,4.183926,t,386.0,456.0,248.0,76.0,266.0,196.0,291.0,386.0,9.46,-2.55,0.08,-4.56,-5.56,-109.56,0.06,-0.69,-0.71,-0.71,-1.35,-0.14,-0.75,0.0,1.0,3.0
562,4.198981,t,394.0,457.0,265.0,75.0,254.0,181.0,278.0,377.0,9.51,-2.38,0.07,1.37,-5.06,-102.69,0.04,-0.7,-0.71,-0.71,-3.85,0.69,-0.39,0.0,1.0,3.0
563,4.214073,t,404.0,476.0,315.0,75.0,239.0,164.0,284.0,410.0,9.58,-2.05,0.06,3.62,-5.25,-92.69,0.04,-0.7,-0.71,-0.71,-3.59,0.41,-0.04,0.0,1.0,3.0
564,4.228164,t,414.0,475.0,324.0,74.0,228.0,157.0,282.0,391.0,9.62,-1.9,0.05,-1.31,-16.56,-91.69,0.03,-0.7,-0.71,-0.71,-3.26,-0.14,0.0,0.0,1.0,3.0
565,4.243543,t,409.0,442.0,325.0,72.0,206.0,152.0,286.0,388.0,9.69,-1.45,-0.05,-16.25,-22.56,-85.81,0.02,-0.7,-0.7,-0.7,-2.95,-1.94,-0.76,0.0,1.0,3.0
566,4.259602,t,402.0,431.0,326.0,74.0,194.0,151.0,294.0,380.0,9.71,-1.32,-0.08,-20.37,-16.31,-79.81,0.01,-0.71,-0.7,-0.7,-3.12,-1.97,-0.46,0.0,1.0,3.0
567,4.274605,t,407.0,418.0,323.0,75.0,189.0,150.0,305.0,377.0,9.73,-1.19,-0.1,-23.19,-10.63,-73.37,0.01,0.71,0.7,0.7,-3.52,-1.93,-0.5,0.0,1.0,3.0
568,4.28868,t,406.0,413.0,319.0,74.0,184.0,150.0,312.0,379.0,9.75,-0.96,-0.13,-27.25,-5.81,-68.06,0.01,0.71,0.7,0.7,-3.86,-1.43,-0.55,0.0,1.0,3.0
569,4.303709,t,415.0,406.0,318.0,73.0,177.0,160.0,324.0,395.0,9.77,-0.73,-0.17,-21.25,-10.44,-66.56,0.02,0.71,0.7,0.7,-3.09,-1.33,-0.38,0.0,1.0,3.0
570,4.318818,t,433.0,419.0,337.0,72.0,170.0,163.0,319.0,405.0,9.78,-0.62,-0.2,-14.75,-15.88,-65.06,0.04,0.71,0.7,0.7,-1.44,-2.97,-1.12,0.0,1.0,3.0
571,4.333847,t,446.0,453.0,358.0,76.0,167.0,168.0,330.0,426.0,9.79,-0.43,-0.26,7.81,-17.31,-56.31,0.04,0.71,0.7,0.7,-1.03,-3.6,-1.06,0.0,1.0,3.0
572,4.348936,t,459.0,511.0,370.0,78.0,167.0,176.0,334.0,443.0,9.79,-0.34,-0.28,19.06,-14.31,-48.69,0.04,0.71,0.7,0.7,-0.57,-4.1,-0.98,0.0,1.0,3.0
573,4.363995,t,476.0,511.0,375.0,78.0,177.0,187.0,356.0,455.0,9.79,-0.22,-0.32,33.69,-14.5,-32.56,0.04,0.72,0.69,0.69,0.4,-4.84,-0.92,0.0,1.0,3.0
574,4.378132,t,498.0,511.0,390.0,79.0,180.0,188.0,360.0,457.0,9.79,-0.18,-0.35,37.38,-18.06,-27.19,0.04,0.72,0.69,0.69,1.2,-4.68,-1.27,0.0,1.0,3.0
575,4.393274,t,497.0,511.0,393.0,79.0,181.0,191.0,369.0,475.0,9.79,-0.14,-0.39,53.56,-20.81,-25.19,0.04,0.72,0.69,0.69,2.41,-1.71,-0.9,0.0,1.0,3.0
576,4.408417,t,506.0,511.0,405.0,82.0,181.0,198.0,380.0,483.0,9.79,-0.06,-0.45,55.88,-15.13,-27.0,0.04,0.72,0.69,0.69,2.52,-1.25,-0.75,0.0,1.0,3.0
577,4.423564,t,490.0,511.0,414.0,81.0,187.0,210.0,392.0,504.0,9.79,0.02,-0.45,39.88,1.75,-30.0,0.04,0.72,0.69,0.69,2.51,-1.91,-1.21,0.0,1.0,3.0
578,4.439636,t,503.0,511.0,410.0,82.0,194.0,202.0,379.0,486.0,9.79,0.07,-0.44,35.38,6.56,-27.87,0.03,0.72,0.69,0.69,2.86,-2.04,-1.95,0.0,1.0,3.0
579,4.453639,t,502.0,511.0,405.0,79.0,203.0,202.0,367.0,484.0,9.79,0.11,-0.43,19.94,3.56,-23.19,0.03,0.72,0.69,0.69,4.29,-2.43,-1.75,0.0,1.0,3.0
580,4.468754,t,502.0,511.0,396.0,80.0,214.0,189.0,350.0,467.0,9.79,0.17,-0.42,5.62,2.94,-18.25,0.04,0.72,0.69,0.69,4.93,-4.23,-1.26,0.0,1.0,3.0
581,4.483758,t,511.0,450.0,359.0,81.0,227.0,177.0,319.0,459.0,9.79,0.2,-0.4,-9.88,7.69,-0.94,0.04,0.72,0.69,0.69,5.09,-4.41,-0.48,0.0,1.0,3.0
582,4.498801,t,450.0,388.0,322.0,82.0,236.0,166.0,292.0,460.0,9.79,0.18,-0.38,-12.94,6.75,10.56,0.04,0.72,0.69,0.69,5.31,-5.16,1.67,0.0,1.0,3.0
583,4.513832,t,385.0,359.0,280.0,82.0,245.0,144.0,271.0,411.0,9.79,0.14,-0.37,-47.81,9.25,38.13,0.04,0.72,0.69,0.69,5.2,-5.26,2.37,0.0,1.0,3.0
584,4.528865,t,318.0,330.0,201.0,81.0,248.0,127.0,258.0,341.0,9.8,-0.19,-0.25,-105.5,42.13,102.5,0.04,0.71,0.7,0.7,4.63,-5.24,2.92,0.0,1.0,3.0
585,4.543928,t,302.0,319.0,172.0,79.0,249.0,135.0,243.0,328.0,9.79,-0.41,-0.16,-131.94,58.44,132.31,0.04,0.71,0.7,0.7,4.55,-7.68,-0.48,0.0,1.0,3.0
586,4.559015,t,290.0,278.0,167.0,78.0,247.0,158.0,238.0,319.0,9.78,-0.65,-0.07,-124.62,62.06,147.56,0.04,0.7,0.7,0.7,4.37,-8.18,-3.36,0.0,1.0,3.0
587,4.573106,t,314.0,265.0,174.0,78.0,254.0,161.0,246.0,348.0,9.76,-0.91,0.04,-70.94,81.62,144.25,0.02,0.69,0.72,0.72,3.17,-4.58,-4.66,0.0,1.0,3.0
588,4.588157,t,382.0,298.0,154.0,72.0,294.0,173.0,280.0,380.0,9.65,-1.65,0.41,51.44,52.25,158.69,0.0,0.68,0.72,0.72,3.23,-2.33,-3.79,0.0,1.0,3.0
589,4.603244,t,405.0,319.0,158.0,71.0,317.0,174.0,290.0,389.0,9.6,-1.93,0.49,49.88,39.44,170.81,0.01,-0.68,-0.72,-0.72,3.43,-1.49,-1.89,0.0,1.0,3.0
590,4.618386,t,408.0,349.0,163.0,72.0,330.0,163.0,294.0,378.0,9.53,-2.23,0.55,51.19,27.62,179.87,0.02,-0.67,-0.73,-0.73,5.9,0.52,2.96,0.0,1.0,3.0
591,4.633478,t,411.0,347.0,148.0,71.0,330.0,157.0,283.0,350.0,9.36,-2.83,0.7,33.88,31.81,190.69,0.06,-0.66,-0.73,-0.73,5.6,3.34,3.47,0.0,1.0,3.0
592,4.648628,t,379.0,334.0,136.0,72.0,353.0,164.0,279.0,334.0,9.14,-3.46,0.78,-20.69,28.25,199.37,0.07,-0.66,-0.73,-0.73,-0.05,2.26,1.28,0.0,1.0,3.0
593,4.663661,t,362.0,322.0,132.0,72.0,339.0,174.0,274.0,326.0,9.02,-3.76,0.78,-36.31,13.94,189.94,0.08,-0.65,-0.73,-0.73,-1.15,1.51,0.77,0.0,1.0,3.0
594,4.678692,t,347.0,314.0,126.0,72.0,316.0,185.0,270.0,326.0,8.9,-4.04,0.74,-43.81,-6.87,176.62,0.09,-0.65,-0.73,-0.73,-0.34,2.02,1.01,0.0,1.0,3.0
595,4.693721,t,347.0,314.0,122.0,72.0,318.0,203.0,273.0,333.0,8.78,-4.3,0.68,-49.5,-15.63,167.94,0.1,-0.65,-0.72,-0.72,0.67,2.16,0.22,0.0,1.0,3.0
596,4.708773,t,339.0,317.0,114.0,69.0,346.0,232.0,278.0,350.0,8.53,-4.79,0.54,-71.25,-4.19,158.56,0.11,-0.64,-0.72,-0.72,1.34,0.98,-0.9,0.0,1.0,3.0
597,4.723834,t,342.0,319.0,114.0,69.0,360.0,245.0,285.0,357.0,8.25,-5.27,0.43,-42.69,-7.31,163.81,0.12,-0.64,-0.71,-0.71,0.56,1.93,-0.95,0.0,1.0,3.0
598,4.73889,t,351.0,328.0,114.0,70.0,366.0,257.0,285.0,362.0,8.1,-5.51,0.4,-13.63,-9.56,169.31,0.13,-0.63,-0.71,-0.71,0.26,2.47,0.27,0.0,1.0,3.0
599,4.754015,t,352.0,327.0,111.0,68.0,359.0,266.0,278.0,355.0,7.93,-5.74,0.38,-6.75,-8.5,168.69,0.15,-0.63,-0.7,-0.7,-0.05,3.5,1.4,0.0,1.0,3.0
600,4.768189,t,330.0,337.0,119.0,68.0,363.0,274.0,278.0,335.0,7.46,-6.34,0.36,7.44,-2.06,141.94,0.17,-0.62,-0.7,-0.7,-1.5,3.61,0.64,0.0,1.0,3.0
601,4.783302,t,319.0,336.0,123.0,69.0,358.0,281.0,282.0,326.0,7.31,-6.51,0.38,20.0,-3.69,135.5,0.18,-0.61,-0.7,-0.7,-1.53,3.6,0.14,0.0,1.0,3.0
602,4.798495,t,302.0,333.0,118.0,68.0,362.0,282.0,289.0,319.0,7.16,-6.67,0.41,28.37,-5.06,130.5,0.2,-0.61,-0.7,-0.7,-1.54,3.91,-0.26,0.0,1.0,3.0
603,4.813609,t,289.0,318.0,118.0,68.0,370.0,283.0,296.0,323.0,7.02,-6.83,0.44,31.81,-6.56,126.31,0.2,-0.6,-0.69,-0.69,-2.78,6.62,-0.71,0.0,1.0,3.0
604,4.828958,t,291.0,293.0,119.0,69.0,396.0,292.0,303.0,342.0,6.63,-7.21,0.42,-2.25,-19.87,97.62,0.22,-0.6,-0.69,-0.69,-2.53,6.44,-0.75,0.0,1.0,3.0
605,4.84308,t,291.0,281.0,122.0,69.0,401.0,294.0,307.0,351.0,6.52,-7.31,0.38,-14.31,-23.19,89.69,0.22,-0.6,-0.69,-0.69,-2.33,6.94,-0.6,0.0,1.0,3.0
606,4.859202,t,290.0,260.0,117.0,69.0,421.0,298.0,309.0,358.0,6.41,-7.4,0.32,-21.94,-25.06,80.81,0.23,-0.6,-0.68,-0.68,-2.64,7.33,-0.26,0.0,1.0,3.0
607,4.873333,t,297.0,234.0,120.0,69.0,439.0,305.0,335.0,385.0,6.25,-7.55,0.18,-35.81,-29.25,60.13,0.24,-0.6,-0.67,-0.67,-2.87,6.46,0.28,0.0,1.0,3.0
608,4.888401,t,310.0,216.0,121.0,68.0,449.0,299.0,319.0,376.0,6.13,-7.65,0.02,-39.0,-28.37,41.56,0.24,-0.6,-0.67,-0.67,-3.31,5.53,0.17,0.0,1.0,3.0
609,4.903522,t,318.0,198.0,123.0,69.0,466.0,298.0,323.0,378.0,6.08,-7.68,-0.05,-34.56,-28.81,33.56,0.24,-0.6,-0.66,-0.66,-3.47,5.47,0.31,0.0,1.0,3.0
610,4.91855,t,324.0,191.0,127.0,69.0,472.0,292.0,327.0,391.0,6.05,-7.71,-0.18,-25.56,-24.0,22.69,0.24,-0.6,-0.66,-0.66,-3.73,3.79,-0.21,0.0,1.0,3.0
611,4.934599,t,330.0,186.0,132.0,69.0,476.0,284.0,353.0,400.0,5.99,-7.75,-0.22,-17.81,-20.62,17.0,0.24,-0.61,-0.65,-0.65,-3.52,3.09,-0.61,0.0,1.0,3.0
612,4.949632,t,338.0,187.0,130.0,68.0,479.0,274.0,360.0,402.0,5.97,-7.77,-0.25,6.19,-14.13,6.62,0.24,-0.61,-0.65,-0.65,-2.85,1.38,-0.56,0.0,1.0,3.0
613,4.963659,t,338.0,203.0,128.0,69.0,488.0,269.0,368.0,412.0,5.97,-7.77,-0.25,14.81,-12.63,-0.37,0.24,-0.61,-0.65,-0.65,-2.53,1.38,-0.6,0.0,1.0,3.0
614,4.978756,t,338.0,225.0,126.0,68.0,493.0,268.0,377.0,428.0,5.98,-7.76,-0.24,18.19,-14.25,-9.69,0.24,-0.61,-0.65,-0.65,-2.08,2.04,-0.53,0.0,1.0,3.0
615,4.993801,t,348.0,245.0,125.0,68.0,487.0,244.0,379.0,447.0,6.06,-7.7,-0.25,3.69,-20.25,-36.88,0.24,-0.61,-0.65,-0.65,0.88,3.13,-1.63,0.0,1.0,3.0
616,5.008954,t,360.0,250.0,122.0,68.0,483.0,245.0,366.0,442.0,6.13,-7.64,-0.29,-16.62,-19.94,-70.69,0.24,-0.62,-0.65,-0.65,1.6,3.29,-1.1,0.0,1.0,3.0
617,5.024045,t,374.0,263.0,104.0,69.0,469.0,248.0,359.0,446.0,6.33,-7.48,-0.35,-3.87,-9.88,-85.06,0.23,-0.62,-0.65,-0.65,2.5,3.52,-0.97,0.0,1.0,3.0
618,5.038135,t,375.0,286.0,98.0,68.0,410.0,254.0,343.0,421.0,6.45,-7.37,-0.34,9.38,-3.75,-96.81,0.23,-0.62,-0.66,-0.66,4.35,2.88,2.17,0.0,1.0,3.0
619,5.053307,t,382.0,330.0,100.0,68.0,358.0,266.0,329.0,364.0,6.75,-7.09,-0.42,-67.5,33.44,-127.0,0.2,-0.63,-0.66,-0.66,9.26,-3.69,3.36,0.0,1.0,3.0
620,5.069439,t,360.0,338.0,104.0,69.0,350.0,259.0,335.0,356.0,6.92,-6.93,-0.43,-47.19,40.25,-136.12,0.19,-0.64,-0.67,-0.67,10.59,-4.28,0.56,0.0,1.0,3.0
621,5.084575,t,344.0,342.0,110.0,69.0,346.0,263.0,348.0,376.0,7.08,-6.76,-0.42,-13.25,0.13,-125.81,0.18,-0.64,-0.67,-0.67,9.86,-6.41,2.71,0.0,1.0,3.0
622,5.09858,t,347.0,368.0,127.0,70.0,331.0,259.0,347.0,345.0,7.46,-6.33,-0.44,10.88,-0.25,-101.75,0.17,-0.65,-0.67,-0.67,4.15,-2.14,1.03,0.0,1.0,3.0
623,5.114624,t,346.0,373.0,134.0,68.0,319.0,249.0,331.0,334.0,7.57,-6.21,-0.41,10.81,10.0,-97.62,0.16,-0.65,-0.67,-0.67,3.73,-2.06,0.18,0.0,1.0,3.0
624,5.12868,t,343.0,382.0,138.0,69.0,316.0,246.0,326.0,331.0,7.68,-6.08,-0.37,17.5,16.62,-97.94,0.16,-0.65,-0.68,-0.68,3.51,-1.88,0.65,0.0,1.0,3.0
625,5.143714,t,342.0,395.0,143.0,69.0,309.0,243.0,324.0,336.0,7.78,-5.95,-0.32,26.75,14.19,-98.81,0.15,-0.65,-0.68,-0.68,3.97,0.84,0.42,0.0,1.0,3.0
626,5.158759,t,339.0,431.0,151.0,69.0,293.0,239.0,331.0,342.0,8.08,-5.55,-0.11,62.06,13.19,-100.44,0.14,-0.66,-0.69,-0.69,2.12,2.13,0.13,0.0,1.0,3.0
627,5.173844,t,336.0,438.0,154.0,70.0,289.0,236.0,328.0,346.0,8.17,-5.41,-0.04,61.38,11.5,-101.25,0.14,-0.66,-0.69,-0.69,1.01,2.9,-0.33,0.0,1.0,3.0
628,5.188898,t,340.0,452.0,153.0,71.0,288.0,232.0,326.0,340.0,8.27,-5.26,0.01,54.44,7.62,-103.12,0.14,-0.66,-0.69,-0.69,0.91,2.52,-0.54,0.0,1.0,3.0
629,5.20399,t,359.0,456.0,150.0,75.0,278.0,220.0,307.0,345.0,8.45,-4.96,0.09,22.5,1.06,-106.56,0.12,-0.66,-0.7,-0.7,0.79,2.46,-0.12,0.0,1.0,3.0
630,5.218042,t,363.0,462.0,152.0,76.0,274.0,219.0,294.0,344.0,8.63,-4.64,0.12,11.81,-2.25,-107.62,0.12,-0.66,-0.7,-0.7,0.86,2.6,-0.2,0.0,1.0,3.0
631,5.233047,t,369.0,468.0,157.0,78.0,276.0,220.0,292.0,346.0,8.72,-4.48,0.11,2.87,-6.62,-108.19,0.11,-0.67,-0.7,-0.7,0.97,2.37,-0.01,0.0,1.0,3.0
632,5.248136,t,370.0,467.0,166.0,78.0,280.0,219.0,287.0,349.0,8.8,-4.32,0.09,-5.81,-9.56,-107.5,0.1,-0.67,-0.7,-0.7,1.28,2.32,-0.15,0.0,1.0,3.0
633,5.263197,t,378.0,470.0,182.0,81.0,296.0,220.0,293.0,360.0,8.95,-4.0,0.05,-24.56,-2.31,-104.0,0.08,-0.68,-0.7,-0.7,1.08,2.02,-0.2,0.0,1.0,3.0
634,5.278353,t,386.0,474.0,191.0,79.0,288.0,213.0,283.0,358.0,9.02,-3.84,0.03,-39.81,10.94,-102.44,0.07,-0.68,-0.7,-0.7,1.37,1.98,-0.14,0.0,1.0,3.0
635,5.294463,t,394.0,475.0,206.0,79.0,294.0,211.0,284.0,364.0,9.15,-3.52,0.03,-41.5,19.37,-103.44,0.06,-0.68,-0.71,-0.71,0.71,1.73,-0.26,0.0,1.0,3.0
636,5.309631,t,393.0,463.0,228.0,78.0,295.0,214.0,284.0,363.0,9.27,-3.17,0.06,-45.75,26.56,-110.75,0.04,-0.68,-0.71,-0.71,-1.03,0.71,-0.86,0.0,1.0,3.0
637,5.324694,t,394.0,470.0,240.0,78.0,294.0,212.0,286.0,367.0,9.33,-2.99,0.07,-45.25,19.37,-113.0,0.03,-0.68,-0.71,-0.71,-1.73,-0.83,-1.58,0.0,1.0,3.0
638,5.340697,t,398.0,471.0,242.0,75.0,294.0,210.0,286.0,368.0,9.39,-2.81,0.07,-42.56,14.88,-113.06,0.01,-0.68,-0.71,-0.71,-0.55,-1.51,-1.09,0.0,1.0,3.0
639,5.354729,t,403.0,479.0,245.0,75.0,284.0,206.0,284.0,370.0,9.48,-2.48,0.08,-35.31,12.81,-98.5,0.01,-0.68,-0.71,-0.71,-0.62,-2.25,-1.39,0.0,1.0,3.0
640,5.369761,t,418.0,482.0,260.0,76.0,261.0,176.0,280.0,376.0,9.55,-2.19,0.13,-30.75,23.5,-83.37,0.01,0.68,0.71,0.71,-1.83,-0.61,-0.68,0.0,1.0,3.0
641,5.383764,t,422.0,486.0,271.0,76.0,251.0,163.0,270.0,380.0,9.58,-2.07,0.15,-30.12,16.69,-77.37,0.02,0.68,0.71,0.71,-2.07,-0.95,-0.88,0.0,1.0,3.0
642,5.398797,t,422.0,480.0,287.0,74.0,243.0,158.0,262.0,393.0,9.6,-1.95,0.15,-25.94,-6.56,-72.06,0.03,0.68,0.71,0.71,-2.94,0.52,-0.82,0.0,1.0,3.0
643,5.413858,t,420.0,484.0,300.0,72.0,229.0,153.0,254.0,387.0,9.65,-1.71,0.09,-26.44,-15.0,-75.25,0.03,0.69,0.71,0.71,-1.84,-0.68,-0.83,0.0,1.0,3.0
644,5.42895,t,400.0,446.0,318.0,74.0,214.0,152.0,256.0,380.0,9.69,-1.46,0.02,-29.75,-14.69,-73.75,0.05,0.69,0.71,0.71,-1.14,-1.74,-1.15,0.0,1.0,3.0
645,5.443981,t,393.0,436.0,308.0,74.0,203.0,146.0,255.0,376.0,9.71,-1.34,0.0,-34.19,-9.19,-67.94,0.06,0.69,0.7,0.7,-1.35,-1.94,-0.98,0.0,1.0,3.0
646,5.458124,t,392.0,424.0,304.0,73.0,187.0,146.0,262.0,374.0,9.72,-1.24,-0.01,-39.94,-3.06,-62.13,0.07,0.69,0.7,0.7,-2.03,-1.98,-1.22,0.0,1.0,3.0
647,5.473233,t,395.0,421.0,304.0,70.0,186.0,142.0,277.0,383.0,9.75,-1.05,-0.03,-44.19,-3.37,-56.38,0.07,0.69,0.7,0.7,-1.99,-1.44,-0.72,0.0,1.0,3.0
648,5.488352,t,403.0,419.0,303.0,70.0,173.0,138.0,290.0,391.0,9.75,-0.95,-0.05,-41.56,-6.31,-55.38,0.08,0.69,0.7,0.7,-1.49,-1.17,-0.73,0.0,1.0,3.0
649,5.504571,t,432.0,446.0,317.0,72.0,160.0,139.0,303.0,394.0,9.77,-0.76,-0.09,-31.87,-8.81,-57.06,0.1,0.7,0.7,0.7,-1.05,-2.01,-0.44,0.0,1.0,3.0
650,5.518883,t,428.0,466.0,324.0,74.0,163.0,153.0,324.0,417.0,9.78,-0.58,-0.11,-25.81,-1.94,-53.44,0.1,0.7,0.7,0.7,-1.03,-2.89,-0.4,0.0,1.0,3.0
651,5.533886,t,441.0,498.0,334.0,77.0,164.0,156.0,334.0,416.0,9.79,-0.49,-0.11,-22.31,1.06,-48.31,0.11,0.7,0.69,0.69,-0.89,-3.76,-0.46,0.0,1.0,3.0
652,5.548985,t,458.0,511.0,341.0,77.0,160.0,152.0,327.0,404.0,9.79,-0.42,-0.11,-16.0,2.69,-42.25,0.11,0.7,0.69,0.69,-0.78,-4.61,-0.63,0.0,1.0,3.0
653,5.563988,t,474.0,511.0,348.0,76.0,158.0,154.0,333.0,414.0,9.79,-0.36,-0.11,-6.69,0.31,-37.0,0.12,0.7,0.69,0.69,1.19,-4.48,-2.41,0.0,1.0,3.0
654,5.578992,t,492.0,511.0,357.0,78.0,166.0,163.0,356.0,447.0,9.8,-0.2,-0.12,32.88,-0.62,-29.25,0.12,0.7,0.69,0.69,1.94,-3.38,-2.25,0.0,1.0,3.0
655,5.593995,t,489.0,511.0,359.0,79.0,177.0,162.0,340.0,430.0,9.8,-0.16,-0.1,38.25,5.62,-24.81,0.11,0.7,0.69,0.69,1.82,-3.21,-2.01,0.0,1.0,3.0
656,5.608047,t,503.0,511.0,350.0,76.0,191.0,162.0,340.0,433.0,9.8,-0.13,-0.08,38.38,12.44,-20.81,0.12,0.7,0.7,0.7,1.99,-2.7,-1.49,0.0,1.0,3.0
657,5.624052,t,497.0,511.0,350.0,74.0,203.0,161.0,339.0,429.0,9.8,-0.07,-0.03,33.19,15.06,-15.44,0.11,0.7,0.7,0.7,2.31,-2.25,-1.37,0.0,1.0,3.0
658,5.639055,t,484.0,511.0,348.0,75.0,214.0,165.0,347.0,446.0,9.8,-0.05,-0.01,29.12,14.44,-13.81,0.11,0.7,0.7,0.7,2.76,-1.73,-1.01,0.0,1.0,3.0
659,5.653059,t,499.0,475.0,328.0,73.0,214.0,158.0,318.0,409.0,9.8,-0.01,0.01,17.31,4.56,-9.0,0.11,0.7,0.7,0.7,3.99,-1.25,-0.58,0.0,1.0,3.0
660,5.66821,t,510.0,402.0,310.0,74.0,218.0,159.0,293.0,410.0,9.8,0.0,0.01,4.75,-6.12,1.87,0.11,0.7,0.7,0.7,4.66,-1.28,-0.29,0.0,1.0,3.0
661,5.683268,t,474.0,365.0,296.0,73.0,220.0,156.0,274.0,406.0,9.8,-0.02,0.0,-4.56,-8.25,7.81,0.11,0.7,0.7,0.7,4.99,-1.92,0.32,0.0,1.0,3.0
662,5.698419,t,397.0,323.0,247.0,78.0,226.0,139.0,253.0,378.0,9.8,-0.07,-0.01,-38.94,1.12,18.06,0.11,0.7,0.7,0.7,5.6,-2.15,0.32,0.0,1.0,3.0
663,5.713481,t,370.0,310.0,220.0,80.0,228.0,136.0,245.0,342.0,9.8,-0.13,0.0,-65.12,8.63,35.88,0.12,0.69,0.7,0.7,4.24,-2.13,0.46,0.0,1.0,3.0
664,5.72858,t,335.0,297.0,174.0,81.0,229.0,142.0,236.0,319.0,9.79,-0.4,0.06,-125.87,30.75,94.0,0.12,0.69,0.7,0.7,3.98,-6.09,1.24,0.0,1.0,3.0
665,5.743599,t,300.0,287.0,148.0,79.0,231.0,157.0,235.0,313.0,9.78,-0.61,0.11,-138.12,38.88,122.0,0.12,0.68,0.7,0.7,1.68,-8.49,-0.02,0.0,1.0,3.0
666,5.758638,t,296.0,228.0,150.0,78.0,240.0,182.0,238.0,348.0,9.74,-1.07,0.21,-52.19,40.44,137.69,0.11,0.67,0.71,0.71,3.16,-9.28,-4.09,0.0,1.0,3.0
667,5.7737,t,319.0,224.0,158.0,69.0,249.0,183.0,248.0,352.0,9.68,-1.51,0.39,61.88,45.81,134.81,0.1,0.66,0.71,0.71,2.11,-5.05,-4.65,0.0,1.0,3.0
668,5.788704,t,357.0,242.0,167.0,69.0,270.0,185.0,262.0,362.0,9.63,-1.74,0.46,81.31,32.0,146.62,0.09,0.66,0.72,0.72,2.44,-3.59,-4.43,0.0,1.0,3.0
669,5.803764,t,380.0,268.0,178.0,72.0,293.0,167.0,275.0,370.0,9.58,-2.0,0.54,90.5,25.75,160.19,0.07,0.66,0.72,0.72,3.18,-2.0,-3.75,0.0,1.0,3.0
670,5.818796,t,391.0,281.0,181.0,70.0,298.0,154.0,276.0,362.0,9.51,-2.27,0.61,90.87,26.0,169.62,0.04,0.65,0.73,0.73,4.66,1.89,2.27,0.0,1.0,3.0
671,5.833881,t,400.0,291.0,179.0,72.0,316.0,151.0,280.0,358.0,9.35,-3.13,0.81,28.87,24.94,184.06,0.02,0.64,0.74,0.74,3.51,2.17,2.54,0.0,1.0,3.0
672,5.848898,t,409.0,294.0,184.0,72.0,360.0,159.0,278.0,343.0,9.15,-3.42,0.85,10.5,25.06,183.81,0.0,0.63,0.74,0.74,0.71,0.0,1.9,0.0,1.0,3.0
673,5.863017,t,399.0,301.0,185.0,72.0,368.0,168.0,278.0,342.0,9.04,-3.69,0.87,-3.31,14.13,175.12,0.02,-0.62,-0.74,-0.74,-1.12,-1.5,0.71,0.0,1.0,3.0
674,5.878088,t,386.0,305.0,183.0,72.0,372.0,180.0,285.0,359.0,8.81,-4.2,0.85,-18.81,-1.69,161.94,0.03,-0.62,-0.74,-0.74,-0.95,1.15,1.31,0.0,1.0,3.0
675,5.89412,t,389.0,308.0,168.0,72.0,355.0,186.0,274.0,358.0,8.7,-4.44,0.82,-36.44,0.31,153.5,0.04,-0.61,-0.73,-0.73,0.35,1.74,1.96,0.0,1.0,3.0
676,5.908178,t,373.0,319.0,148.0,68.0,359.0,214.0,283.0,358.0,8.46,-4.89,0.73,-70.37,4.37,146.81,0.04,-0.61,-0.73,-0.73,0.72,1.94,1.36,0.0,1.0,3.0
677,5.923296,t,364.0,328.0,143.0,68.0,364.0,221.0,287.0,362.0,8.33,-5.12,0.68,-61.0,-2.25,150.37,0.05,-0.6,-0.73,-0.73,1.21,1.0,-0.51,0.0,1.0,3.0
678,5.939352,t,367.0,330.0,142.0,70.0,368.0,228.0,286.0,368.0,8.19,-5.34,0.63,-21.94,-11.94,157.94,0.07,-0.6,-0.73,-0.73,0.94,0.79,-1.09,0.0,1.0,3.0
679,5.954456,t,374.0,354.0,139.0,69.0,378.0,258.0,283.0,367.0,7.73,-5.99,0.56,-1.94,-4.44,156.69,0.09,-0.59,-0.72,-0.72,0.12,2.42,0.62,0.0,1.0,3.0
680,5.968603,t,361.0,366.0,141.0,69.0,376.0,270.0,287.0,363.0,7.57,-6.2,0.57,4.94,-0.13,153.31,0.1,-0.58,-0.72,-0.72,-0.47,3.03,1.35,0.0,1.0,3.0
681,5.983633,t,362.0,368.0,147.0,68.0,383.0,268.0,295.0,356.0,7.41,-6.38,0.58,11.25,3.19,145.87,0.12,-0.57,-0.72,-0.72,-1.09,3.81,1.69,0.0,1.0,3.0
682,5.998637,t,350.0,364.0,146.0,69.0,396.0,280.0,310.0,360.0,7.26,-6.56,0.61,15.31,4.5,132.81,0.12,-0.57,-0.72,-0.72,-2.3,4.94,0.63,0.0,1.0,3.0
683,6.013694,t,356.0,372.0,136.0,68.0,392.0,282.0,312.0,354.0,6.82,-7.01,0.65,1.87,1.62,119.37,0.14,-0.56,-0.72,-0.72,-2.24,5.32,-0.01,0.0,1.0,3.0
684,6.028723,t,354.0,369.0,129.0,69.0,392.0,286.0,316.0,354.0,6.68,-7.14,0.64,-9.56,0.88,110.69,0.15,-0.56,-0.72,-0.72,-2.6,5.52,-0.32,0.0,1.0,3.0
685,6.043756,t,359.0,369.0,136.0,69.0,408.0,292.0,325.0,366.0,6.56,-7.26,0.61,-22.56,-1.31,101.81,0.16,-0.55,-0.71,-0.71,-2.68,5.57,-0.45,0.0,1.0,3.0
686,6.058785,t,361.0,363.0,143.0,69.0,435.0,294.0,341.0,370.0,6.44,-7.37,0.5,-39.38,-13.0,77.31,0.16,-0.55,-0.7,-0.7,-1.96,5.17,-0.42,0.0,1.0,3.0
687,6.074788,t,346.0,329.0,134.0,68.0,468.0,296.0,359.0,389.0,6.14,-7.63,0.37,-40.25,-13.56,71.06,0.17,-0.55,-0.7,-0.7,-2.03,5.34,-0.07,0.0,1.0,3.0
688,6.088792,t,331.0,310.0,131.0,68.0,475.0,292.0,362.0,392.0,6.06,-7.7,0.3,-41.56,-12.56,65.19,0.17,-0.55,-0.7,-0.7,-2.16,5.42,0.03,0.0,1.0,3.0
689,6.104821,t,332.0,284.0,131.0,68.0,481.0,283.0,361.0,402.0,5.98,-7.76,0.23,-42.19,-13.13,58.88,0.17,-0.55,-0.69,-0.69,-2.09,5.12,-0.15,0.0,1.0,3.0
690,6.118883,t,341.0,262.0,130.0,69.0,508.0,271.0,376.0,426.0,5.84,-7.87,0.09,-40.94,-14.31,47.75,0.17,-0.54,-0.69,-0.69,-3.03,4.62,-0.65,0.0,1.0,3.0
691,6.133928,t,348.0,260.0,133.0,68.0,511.0,263.0,403.0,451.0,5.73,-7.95,-0.05,-44.69,-16.12,38.31,0.18,-0.54,-0.68,-0.68,-3.2,2.8,-0.6,0.0,1.0,3.0
692,6.149072,t,351.0,239.0,134.0,68.0,511.0,246.0,424.0,451.0,5.68,-7.98,-0.12,-41.88,-16.62,35.88,0.18,-0.55,-0.68,-0.68,-3.11,1.82,-0.19,0.0,1.0,3.0
693,6.16417,t,351.0,240.0,136.0,68.0,511.0,240.0,438.0,445.0,5.64,-8.02,-0.19,-38.88,-16.44,34.94,0.18,-0.55,-0.68,-0.68,-2.74,1.1,-0.03,0.0,1.0,3.0
694,6.17929,t,349.0,235.0,134.0,69.0,511.0,226.0,509.0,511.0,5.55,-8.07,-0.29,-26.44,-7.0,29.62,0.18,-0.54,-0.67,-0.67,-1.72,-0.06,-0.71,0.0,1.0,3.0
695,6.194417,t,347.0,238.0,131.0,69.0,511.0,215.0,472.0,502.0,5.48,-8.12,-0.35,-12.81,-6.12,21.44,0.18,-0.54,-0.67,-0.67,-1.28,-0.1,-0.55,0.0,1.0,3.0
696,6.209558,t,347.0,247.0,130.0,69.0,511.0,210.0,460.0,507.0,5.46,-8.13,-0.37,-8.94,-7.19,16.56,0.18,-0.54,-0.67,-0.67,-0.72,-0.15,-0.41,0.0,1.0,3.0
697,6.22462,t,354.0,259.0,127.0,69.0,511.0,208.0,446.0,511.0,5.44,-8.14,-0.39,-9.88,-8.38,10.56,0.18,-0.54,-0.67,-0.67,0.72,0.1,-0.01,0.0,1.0,3.0
698,6.238649,t,354.0,249.0,122.0,68.0,511.0,222.0,410.0,494.0,5.45,-8.13,-0.45,-19.69,-5.94,-20.25,0.18,-0.55,-0.67,-0.67,1.3,0.41,-0.31,0.0,1.0,3.0
699,6.254693,t,353.0,246.0,121.0,69.0,511.0,232.0,386.0,456.0,5.53,-8.07,-0.52,-22.0,-5.87,-37.13,0.18,-0.55,-0.67,-0.67,1.43,0.34,-0.63,0.0,1.0,3.0
700,6.268757,t,355.0,257.0,120.0,68.0,511.0,226.0,356.0,444.0,5.61,-8.02,-0.55,-20.62,-3.19,-56.25,0.17,-0.55,-0.66,-0.66,1.38,0.47,-0.75,0.0,1.0,3.0
701,6.28482,t,362.0,264.0,112.0,68.0,483.0,234.0,335.0,441.0,5.71,-7.94,-0.57,-15.75,2.06,-76.19,0.17,-0.56,-0.67,-0.67,1.15,0.99,-1.06,0.0,1.0,3.0
702,6.299863,t,352.0,294.0,100.0,68.0,390.0,240.0,291.0,368.0,5.99,-7.74,-0.52,14.5,13.0,-110.25,0.15,-0.57,-0.67,-0.67,4.75,-0.72,2.49,0.0,1.0,3.0
703,6.313933,t,366.0,296.0,98.0,67.0,360.0,251.0,290.0,355.0,6.16,-7.6,-0.53,-46.0,30.37,-141.87,0.13,-0.57,-0.67,-0.67,6.28,-4.72,4.31,0.0,1.0,3.0
704,6.329014,t,370.0,311.0,101.0,68.0,343.0,250.0,299.0,351.0,6.53,-7.29,-0.55,-18.31,31.0,-140.25,0.12,-0.57,-0.68,-0.68,9.8,-5.21,0.22,0.0,1.0,3.0
705,6.344098,t,347.0,319.0,98.0,67.0,319.0,232.0,301.0,344.0,6.85,-6.99,-0.48,7.12,19.56,-128.81,0.11,-0.58,-0.68,-0.68,9.73,-3.22,2.85,0.0,1.0,3.0
706,6.35819,t,343.0,338.0,113.0,68.0,305.0,228.0,302.0,348.0,7.0,-6.84,-0.44,9.94,22.25,-119.87,0.09,-0.59,-0.69,-0.69,8.45,-2.89,3.0,0.0,1.0,3.0
707,6.373302,t,343.0,356.0,131.0,68.0,301.0,224.0,304.0,340.0,7.14,-6.7,-0.4,9.94,22.25,-119.87,0.09,-0.59,-0.69,-0.69,4.45,-0.68,0.93,0.0,1.0,3.0
708,6.388504,t,335.0,364.0,136.0,69.0,310.0,241.0,316.0,345.0,7.38,-6.44,-0.32,14.56,20.0,-103.31,0.08,-0.59,-0.69,-0.69,2.14,1.32,1.13,0.0,1.0,3.0
709,6.403579,t,329.0,402.0,144.0,70.0,318.0,242.0,323.0,332.0,7.62,-6.15,-0.19,35.44,28.0,-113.94,0.07,-0.6,-0.7,-0.7,1.97,-0.82,0.61,0.0,1.0,3.0
710,6.419634,t,342.0,426.0,143.0,68.0,314.0,235.0,316.0,329.0,7.74,-6.0,-0.12,35.44,28.0,-113.94,0.06,-0.6,-0.7,-0.7,1.92,-0.73,0.19,0.0,1.0,3.0
711,6.434667,t,341.0,440.0,142.0,68.0,310.0,235.0,318.0,330.0,7.86,-5.85,-0.04,37.69,26.5,-118.56,0.05,-0.6,-0.71,-0.71,1.48,-0.19,-0.04,0.0,1.0,3.0
712,6.449697,t,361.0,464.0,135.0,68.0,289.0,229.0,307.0,334.0,8.2,-5.36,0.14,31.56,17.0,-113.19,0.04,-0.61,-0.71,-0.71,0.82,1.16,-0.44,0.0,1.0,3.0
713,6.4637,t,363.0,461.0,131.0,69.0,289.0,222.0,301.0,338.0,8.3,-5.21,0.17,26.12,8.94,-108.62,0.04,-0.61,-0.71,-0.71,1.14,1.36,-0.03,0.0,1.0,3.0
714,6.478759,t,366.0,459.0,134.0,69.0,288.0,221.0,292.0,342.0,8.39,-5.06,0.19,17.69,2.31,-103.81,0.03,-0.61,-0.71,-0.71,1.77,2.09,0.43,0.0,1.0,3.0
715,6.493821,t,368.0,456.0,140.0,68.0,284.0,218.0,282.0,346.0,8.48,-4.91,0.2,10.31,-0.19,-101.37,0.02,-0.62,-0.71,-0.71,1.72,2.23,0.34,0.0,1.0,3.0
716,6.508869,t,370.0,461.0,154.0,74.0,280.0,214.0,273.0,352.0,8.64,-4.61,0.21,-16.56,13.63,-102.62,0.01,-0.63,-0.72,-0.72,0.52,2.67,-0.66,0.0,1.0,3.0
717,6.52391,t,374.0,463.0,159.0,76.0,278.0,214.0,268.0,352.0,8.72,-4.46,0.22,-27.62,20.19,-104.06,0.0,0.63,0.72,0.72,0.04,2.12,-0.78,0.0,1.0,3.0
718,6.538942,t,374.0,469.0,163.0,78.0,280.0,214.0,264.0,353.0,8.88,-4.14,0.24,-37.44,23.81,-106.62,0.01,0.63,0.72,0.72,0.05,1.48,-1.04,0.0,1.0,3.0
719,6.553975,t,374.0,466.0,167.0,80.0,277.0,216.0,264.0,351.0,8.95,-3.98,0.24,-44.13,24.75,-112.44,0.04,0.63,0.72,0.72,0.18,-0.02,-1.3,0.0,1.0,3.0
720,6.568108,t,375.0,467.0,183.0,80.0,275.0,218.0,265.0,356.0,9.17,-3.45,0.26,-49.13,23.87,-112.81,0.05,0.64,0.72,0.72,0.28,-0.86,-0.92,0.0,1.0,3.0
721,6.583282,t,393.0,464.0,188.0,80.0,281.0,213.0,261.0,361.0,9.23,-3.28,0.27,-46.88,22.19,-109.81,0.06,0.64,0.71,0.71,-0.11,-1.5,-0.92,0.0,1.0,3.0
722,6.598399,t,391.0,455.0,200.0,80.0,278.0,206.0,260.0,363.0,9.29,-3.12,0.29,-41.81,23.0,-105.0,0.07,0.64,0.71,0.71,-1.15,-1.88,-0.94,0.0,1.0,3.0
723,6.613568,t,388.0,445.0,207.0,79.0,277.0,202.0,264.0,369.0,9.34,-2.96,0.31,-34.56,24.06,-100.19,0.08,0.64,0.71,0.71,-1.76,-2.21,-1.11,0.0,1.0,3.0
724,6.628621,t,390.0,447.0,215.0,80.0,270.0,198.0,264.0,374.0,9.38,-2.8,0.33,-16.0,19.19,-90.37,0.08,0.64,0.71,0.71,-1.87,-1.44,-1.39,0.0,1.0,3.0
725,6.643704,t,381.0,437.0,233.0,77.0,236.0,164.0,247.0,370.0,9.49,-2.4,0.38,-2.06,5.06,-76.62,0.1,0.64,0.71,0.71,-1.57,-1.63,-1.5,0.0,1.0,3.0
726,6.658856,t,380.0,434.0,246.0,77.0,230.0,157.0,245.0,375.0,9.52,-2.28,0.39,-0.5,3.44,-70.81,0.1,0.65,0.71,0.71,-1.95,-0.95,-1.4,0.0,1.0,3.0
727,6.67394,t,381.0,454.0,250.0,76.0,217.0,150.0,238.0,371.0,9.57,-2.07,0.37,0.69,-7.31,-63.5,0.1,0.65,0.71,0.71,-3.82,0.31,-1.04,0.0,1.0,3.0
728,6.688081,t,376.0,455.0,264.0,75.0,208.0,147.0,236.0,365.0,9.6,-1.96,0.34,1.81,-21.75,-67.87,0.11,0.65,0.71,0.71,-3.19,0.24,-1.34,0.0,1.0,3.0
729,6.703232,t,378.0,446.0,279.0,75.0,198.0,138.0,230.0,352.0,9.62,-1.84,0.29,0.69,-29.69,-70.81,0.11,0.66,0.71,0.71,-1.42,-0.74,-0.95,0.0,1.0,3.0
730,6.718376,t,369.0,402.0,287.0,75.0,181.0,142.0,241.0,355.0,9.66,-1.62,0.22,-14.06,-6.81,-58.88,0.12,0.66,0.7,0.7,-1.73,-1.1,-1.07,0.0,1.0,3.0
731,6.733488,t,374.0,401.0,289.0,75.0,177.0,136.0,249.0,358.0,9.69,-1.43,0.19,-18.37,-4.25,-53.38,0.12,0.66,0.7,0.7,-2.04,-1.29,-0.85,0.0,1.0,3.0
732,6.748617,t,375.0,393.0,294.0,74.0,167.0,127.0,252.0,349.0,9.71,-1.35,0.18,-19.75,-4.5,-50.0,0.13,0.67,0.7,0.7,-1.85,-1.03,-0.84,0.0,1.0,3.0
733,6.763646,t,375.0,395.0,297.0,72.0,165.0,129.0,263.0,356.0,9.72,-1.27,0.16,-17.37,-7.19,-49.63,0.13,0.67,0.7,0.7,-1.64,-0.92,-1.0,0.0,1.0,3.0
734,6.778675,t,389.0,401.0,304.0,72.0,167.0,135.0,279.0,376.0,9.74,-1.09,0.12,-19.0,-9.38,-58.5,0.14,0.67,0.7,0.7,-1.07,-1.31,-0.68,0.0,1.0,3.0
735,6.793694,t,425.0,422.0,318.0,71.0,155.0,133.0,298.0,375.0,9.76,-0.89,0.09,-15.56,-7.75,-61.31,0.14,0.67,0.7,0.7,-0.74,-1.87,-0.73,0.0,1.0,3.0
736,6.808706,t,429.0,432.0,322.0,72.0,150.0,144.0,305.0,382.0,9.77,-0.79,0.07,-6.56,-8.25,-62.06,0.15,0.68,0.69,0.69,-0.45,-3.16,-1.1,0.0,1.0,3.0
737,6.823761,t,435.0,452.0,329.0,74.0,147.0,146.0,310.0,386.0,9.78,-0.68,0.06,17.75,-2.81,-58.56,0.15,0.68,0.69,0.69,-0.26,-4.01,-1.08,0.0,1.0,3.0
738,6.838809,t,442.0,470.0,334.0,77.0,147.0,146.0,316.0,397.0,9.79,-0.49,0.06,31.87,-2.06,-55.63,0.15,0.68,0.69,0.69,1.58,-3.44,-0.96,0.0,1.0,3.0
739,6.855824,t,439.0,474.0,342.0,79.0,148.0,151.0,322.0,394.0,9.79,-0.4,0.06,44.06,-3.81,-53.5,0.15,0.68,0.69,0.69,2.19,-3.35,-1.2,0.0,1.0,3.0
740,6.868886,t,452.0,476.0,338.0,76.0,158.0,146.0,324.0,417.0,9.8,-0.13,0.07,57.13,6.94,-51.31,0.15,0.69,0.69,0.69,2.6,-2.89,-1.43,0.0,1.0,3.0
741,6.883918,t,457.0,481.0,334.0,75.0,163.0,148.0,318.0,403.0,9.8,-0.05,0.09,59.81,11.25,-47.88,0.15,0.69,0.7,0.7,2.69,-2.38,-1.18,0.0,1.0,3.0
742,6.898975,t,452.0,480.0,329.0,76.0,174.0,153.0,323.0,407.0,9.8,0.01,0.11,59.19,12.31,-41.31,0.14,0.69,0.7,0.7,2.68,-2.27,-1.02,0.0,1.0,3.0
743,6.913093,t,459.0,479.0,323.0,73.0,175.0,148.0,310.0,392.0,9.8,0.06,0.13,57.44,11.5,-31.44,0.14,0.69,0.7,0.7,2.68,-1.83,-0.82,0.0,1.0,3.0
744,6.928129,t,462.0,429.0,315.0,74.0,178.0,147.0,305.0,386.0,9.8,0.13,0.16,44.19,9.69,-14.06,0.14,0.69,0.7,0.7,2.91,-2.3,-1.46,0.0,1.0,3.0
745,6.943259,t,467.0,370.0,295.0,79.0,186.0,151.0,298.0,394.0,9.8,0.14,0.19,22.81,9.75,-0.56,0.13,0.69,0.7,0.7,3.36,-1.98,-1.55,0.0,1.0,3.0
746,6.958262,t,457.0,347.0,282.0,79.0,185.0,142.0,259.0,385.0,9.8,0.13,0.2,13.88,5.37,3.94,0.13,0.69,0.7,0.7,5.33,-1.48,-1.21,0.0,1.0,3.0
747,6.973266,t,429.0,324.0,268.0,82.0,200.0,136.0,252.0,374.0,9.8,0.08,0.22,-38.44,17.44,28.5,0.13,0.69,0.7,0.7,4.64,-1.04,-0.48,0.0,1.0,3.0
748,6.989256,t,371.0,290.0,214.0,83.0,214.0,136.0,231.0,334.0,9.8,-0.03,0.3,-62.94,26.44,41.31,0.14,0.68,0.71,0.71,3.77,-2.07,-0.04,0.0,1.0,3.0
749,7.00327,t,332.0,275.0,171.0,82.0,215.0,139.0,224.0,314.0,9.79,-0.14,0.36,-88.19,35.69,61.38,0.14,0.68,0.71,0.71,3.41,-3.33,0.7,0.0,1.0,3.0
750,7.018274,t,313.0,279.0,148.0,81.0,222.0,150.0,221.0,307.0,9.79,-0.29,0.43,-108.37,46.31,81.62,0.14,0.67,0.71,0.71,2.93,-4.71,1.7,0.0,1.0,3.0
751,7.03334,t,297.0,275.0,141.0,80.0,229.0,168.0,229.0,310.0,9.78,-0.47,0.51,-126.25,53.38,127.31,0.14,0.66,0.72,0.72,0.74,-10.55,-5.88,0.0,1.0,3.0
752,7.048427,t,335.0,218.0,160.0,70.0,248.0,179.0,236.0,344.0,9.71,-1.14,0.69,-19.12,39.5,130.75,0.13,0.65,0.72,0.72,2.26,-8.58,-5.52,0.0,1.0,3.0
753,7.063549,t,362.0,224.0,169.0,72.0,278.0,180.0,248.0,360.0,9.68,-1.34,0.78,68.25,43.0,125.56,0.12,0.65,0.72,0.72,1.47,-6.1,-4.17,0.0,1.0,3.0
754,7.078619,t,375.0,242.0,172.0,73.0,292.0,177.0,259.0,364.0,9.64,-1.56,0.87,105.19,38.63,140.81,0.11,0.64,0.73,0.73,1.86,-2.02,-2.36,0.0,1.0,3.0
755,7.093663,t,393.0,261.0,175.0,72.0,334.0,150.0,267.0,357.0,9.52,-2.07,1.05,45.13,22.87,179.12,0.07,0.63,0.74,0.74,4.51,3.46,2.6,0.0,1.0,3.0
756,7.109667,t,402.0,272.0,174.0,72.0,345.0,146.0,262.0,335.0,9.37,-2.64,1.15,34.31,18.06,183.81,0.05,0.62,0.75,0.75,3.56,3.33,2.98,0.0,1.0,3.0
757,7.12367,t,396.0,270.0,177.0,72.0,358.0,152.0,267.0,330.0,9.27,-2.94,1.18,23.0,13.81,187.44,0.04,0.62,0.75,0.75,1.83,1.21,2.63,0.0,1.0,3.0
758,7.138673,t,381.0,281.0,180.0,72.0,354.0,163.0,271.0,331.0,9.18,-3.23,1.2,3.0,10.0,182.0,0.03,0.62,0.75,0.75,0.02,-0.67,1.76,0.0,1.0,3.0
759,7.154677,t,375.0,290.0,182.0,72.0,359.0,166.0,264.0,326.0,8.97,-3.76,1.18,-20.44,-2.31,163.75,0.0,0.6,0.75,0.75,-0.93,0.73,0.33,0.0,1.0,3.0
760,7.16868,t,378.0,304.0,170.0,72.0,367.0,180.0,264.0,338.0,8.87,-4.0,1.16,-45.13,4.37,147.06,0.01,-0.6,-0.75,-0.75,-0.52,1.56,1.25,0.0,1.0,3.0
761,7.183683,t,370.0,310.0,160.0,72.0,372.0,194.0,264.0,343.0,8.66,-4.46,1.09,-63.81,7.19,139.5,0.01,-0.6,-0.75,-0.75,0.22,0.75,0.4,0.0,1.0,3.0
762,7.198687,t,360.0,334.0,152.0,69.0,386.0,212.0,267.0,350.0,8.44,-4.88,0.99,-64.19,-3.56,137.75,0.02,-0.59,-0.74,-0.74,0.18,-0.51,-0.77,0.0,1.0,3.0
763,7.21369,t,361.0,344.0,155.0,68.0,397.0,216.0,268.0,350.0,8.32,-5.1,0.93,-43.63,-13.81,142.56,0.03,-0.59,-0.74,-0.74,0.99,-0.02,-1.19,0.0,1.0,3.0
764,7.228694,t,359.0,350.0,158.0,69.0,416.0,229.0,278.0,361.0,8.19,-5.31,0.88,-20.06,-17.69,146.62,0.05,-0.58,-0.74,-0.74,-0.24,1.06,-0.63,0.0,1.0,3.0
765,7.244708,t,358.0,357.0,154.0,69.0,407.0,228.0,274.0,348.0,7.91,-5.72,0.85,9.81,-13.88,146.19,0.06,-0.58,-0.73,-0.73,-0.58,1.92,-0.01,0.0,1.0,3.0
766,7.258736,t,340.0,363.0,153.0,69.0,412.0,246.0,282.0,348.0,7.63,-6.08,0.86,18.81,-9.69,136.25,0.08,-0.57,-0.73,-0.73,-1.76,3.0,0.65,0.0,1.0,3.0
767,7.273739,t,337.0,366.0,144.0,69.0,416.0,250.0,287.0,345.0,7.5,-6.25,0.86,19.94,-10.38,130.25,0.09,-0.57,-0.73,-0.73,-1.89,3.43,0.35,0.0,1.0,3.0
768,7.288743,t,335.0,358.0,142.0,69.0,419.0,254.0,292.0,345.0,7.37,-6.4,0.87,14.69,-17.25,119.69,0.11,-0.56,-0.73,-0.73,-2.11,3.61,-0.61,0.0,1.0,3.0
769,7.304761,t,339.0,358.0,141.0,68.0,424.0,258.0,298.0,350.0,7.23,-6.55,0.82,6.81,-29.0,111.25,0.12,-0.56,-0.73,-0.73,-1.71,4.48,-0.93,0.0,1.0,3.0
770,7.318861,t,352.0,358.0,129.0,69.0,439.0,264.0,315.0,361.0,6.86,-6.95,0.78,-2.62,-31.06,104.12,0.13,-0.55,-0.72,-0.72,-1.69,4.94,-0.59,0.0,1.0,3.0
771,7.333864,t,353.0,363.0,136.0,70.0,445.0,270.0,330.0,368.0,6.75,-7.07,0.72,-14.88,-32.69,95.19,0.14,-0.55,-0.72,-0.72,-1.78,5.02,-0.21,0.0,1.0,3.0
772,7.348896,t,343.0,359.0,142.0,69.0,459.0,271.0,350.0,364.0,6.65,-7.17,0.66,-24.44,-32.81,84.62,0.15,-0.55,-0.71,-0.71,-1.73,5.0,-0.13,0.0,1.0,3.0
773,7.363955,t,327.0,336.0,134.0,68.0,450.0,266.0,350.0,375.0,6.41,-7.4,0.41,-37.94,-35.81,58.25,0.15,-0.55,-0.71,-0.71,-2.16,4.54,0.24,0.0,1.0,3.0
774,7.37913,t,316.0,326.0,126.0,69.0,456.0,269.0,356.0,376.0,6.35,-7.46,0.32,-38.19,-36.5,49.88,0.15,-0.55,-0.7,-0.7,-2.14,4.53,0.28,0.0,1.0,3.0
775,7.393247,t,313.0,302.0,126.0,68.0,464.0,268.0,358.0,385.0,6.3,-7.51,0.23,-38.44,-38.06,42.88,0.16,-0.56,-0.7,-0.7,-2.15,4.59,0.29,0.0,1.0,3.0
776,7.408303,t,313.0,289.0,124.0,69.0,472.0,269.0,356.0,391.0,6.25,-7.55,0.14,-43.06,-38.75,31.0,0.16,-0.56,-0.69,-0.69,-1.9,3.41,0.16,0.0,1.0,3.0
777,7.42346,t,326.0,255.0,125.0,68.0,482.0,272.0,372.0,422.0,6.18,-7.61,-0.05,-47.44,-38.19,18.37,0.16,-0.56,-0.68,-0.68,-1.76,2.56,-0.46,0.0,1.0,3.0
778,7.439533,t,335.0,255.0,127.0,68.0,491.0,271.0,386.0,451.0,6.13,-7.64,-0.25,-41.19,-37.0,12.63,0.16,-0.57,-0.68,-0.68,-1.63,1.8,-0.41,0.0,1.0,3.0
779,7.454605,t,332.0,254.0,132.0,69.0,493.0,266.0,393.0,472.0,6.12,-7.64,-0.33,-34.5,-35.88,7.94,0.16,-0.57,-0.68,-0.68,-1.58,1.45,-0.5,0.0,1.0,3.0
780,7.4697,t,336.0,258.0,132.0,69.0,497.0,261.0,410.0,500.0,6.12,-7.64,-0.46,-20.06,-27.75,-3.5,0.16,-0.57,-0.67,-0.67,-1.4,1.81,-0.88,0.0,1.0,3.0
781,7.484768,t,342.0,266.0,127.0,68.0,498.0,269.0,437.0,511.0,6.15,-7.61,-0.54,-9.44,-20.87,-16.87,0.16,-0.58,-0.67,-0.67,-1.18,1.59,-0.53,0.0,1.0,3.0
782,7.499824,t,349.0,270.0,130.0,67.0,496.0,270.0,428.0,505.0,6.18,-7.58,-0.57,-4.25,-22.31,-24.31,0.16,-0.58,-0.67,-0.67,-0.97,1.28,-0.61,0.0,1.0,3.0
783,7.514828,t,349.0,274.0,140.0,69.0,508.0,281.0,428.0,511.0,6.22,-7.55,-0.6,0.0,-26.19,-31.94,0.16,-0.58,-0.67,-0.67,-0.22,0.77,-0.92,0.0,1.0,3.0
784,7.528886,t,363.0,276.0,133.0,68.0,511.0,274.0,419.0,498.0,6.27,-7.51,-0.62,0.44,-27.19,-39.75,0.16,-0.58,-0.67,-0.67,0.03,0.6,-1.21,0.0,1.0,3.0
785,7.544919,t,372.0,283.0,124.0,69.0,510.0,283.0,408.0,494.0,6.33,-7.45,-0.65,-0.75,-25.69,-48.88,0.15,-0.59,-0.66,-0.66,1.03,1.33,-1.48,0.0,1.0,3.0
786,7.559007,t,402.0,326.0,115.0,69.0,462.0,292.0,381.0,460.0,6.6,-7.22,-0.63,39.44,-8.56,-84.81,0.15,-0.6,-0.67,-0.67,1.82,2.27,0.52,0.0,1.0,3.0
787,7.573123,t,398.0,342.0,103.0,67.0,400.0,282.0,353.0,412.0,6.72,-7.1,-0.64,0.19,-9.88,-101.37,0.14,-0.6,-0.67,-0.67,4.57,0.08,2.7,0.0,1.0,3.0
788,7.588231,t,401.0,361.0,101.0,67.0,366.0,281.0,347.0,386.0,6.86,-6.96,-0.67,-33.38,16.12,-119.31,0.12,-0.61,-0.67,-0.67,8.54,-3.78,0.66,0.0,1.0,3.0
789,7.60433,t,360.0,362.0,107.0,68.0,335.0,260.0,349.0,368.0,7.15,-6.67,-0.65,6.81,6.5,-120.12,0.11,-0.62,-0.67,-0.67,7.61,-4.72,3.14,0.0,1.0,3.0
790,7.618439,t,357.0,361.0,114.0,68.0,317.0,253.0,330.0,362.0,7.28,-6.53,-0.64,5.31,-5.37,-107.31,0.11,-0.62,-0.68,-0.68,6.65,-3.82,1.86,0.0,1.0,3.0
791,7.633543,t,362.0,369.0,126.0,68.0,299.0,250.0,326.0,364.0,7.5,-6.27,-0.64,7.75,-8.44,-97.75,0.1,-0.62,-0.68,-0.68,3.44,-0.38,1.96,0.0,1.0,3.0
792,7.648604,t,355.0,382.0,133.0,68.0,300.0,249.0,306.0,344.0,7.7,-6.03,-0.65,-8.13,8.31,-93.75,0.09,-0.63,-0.68,-0.68,2.81,-0.53,2.47,0.0,1.0,3.0
793,7.663639,t,348.0,392.0,136.0,68.0,300.0,248.0,307.0,336.0,7.8,-5.9,-0.64,-7.69,12.94,-96.69,0.08,-0.63,-0.68,-0.68,2.82,-1.7,1.86,0.0,1.0,3.0
794,7.678729,t,338.0,392.0,139.0,68.0,299.0,247.0,301.0,319.0,7.9,-5.76,-0.6,6.19,19.31,-100.56,0.07,-0.63,-0.68,-0.68,2.18,-1.72,1.08,0.0,1.0,3.0
795,7.693775,t,329.0,406.0,140.0,68.0,285.0,240.0,295.0,319.0,8.22,-5.33,-0.38,41.81,35.0,-105.31,0.06,-0.64,-0.69,-0.69,0.85,-0.39,0.27,0.0,1.0,3.0
796,7.708795,t,310.0,424.0,136.0,68.0,274.0,242.0,291.0,307.0,8.31,-5.19,-0.3,45.19,32.13,-101.81,0.06,-0.64,-0.69,-0.69,0.75,-0.13,0.0,0.0,1.0,3.0
797,7.724807,t,319.0,413.0,131.0,69.0,266.0,232.0,289.0,304.0,8.4,-5.05,-0.22,46.06,25.94,-98.44,0.05,-0.64,-0.7,-0.7,0.81,0.33,-0.04,0.0,1.0,3.0
798,7.738821,t,319.0,426.0,133.0,72.0,261.0,228.0,289.0,302.0,8.48,-4.91,-0.15,38.94,17.44,-95.12,0.04,-0.64,-0.7,-0.7,1.11,1.66,-0.81,0.0,1.0,3.0
799,7.754865,t,328.0,436.0,133.0,76.0,258.0,228.0,286.0,306.0,8.71,-4.48,-0.01,26.37,8.94,-96.87,0.04,-0.64,-0.71,-0.71,0.8,1.59,-1.05,0.0,1.0,3.0
800,7.768934,t,332.0,437.0,135.0,79.0,254.0,224.0,282.0,309.0,8.79,-4.34,0.0,17.81,5.31,-97.75,0.03,-0.65,-0.71,-0.71,0.52,1.34,-1.03,0.0,1.0,3.0
801,7.783967,t,343.0,450.0,140.0,79.0,261.0,223.0,272.0,312.0,8.86,-4.19,0.01,10.94,2.75,-98.69,0.02,-0.65,-0.71,-0.71,0.42,1.3,-1.13,0.0,1.0,3.0
802,7.798063,t,347.0,454.0,143.0,79.0,258.0,220.0,263.0,317.0,8.93,-4.03,0.02,5.75,-0.62,-99.37,0.01,-0.65,-0.71,-0.71,0.39,0.94,-1.23,0.0,1.0,3.0
803,7.813208,t,352.0,451.0,159.0,80.0,259.0,210.0,262.0,327.0,9.13,-3.56,-0.01,-6.5,-10.13,-103.06,0.0,-0.66,-0.71,-0.71,0.79,0.73,-1.14,0.0,1.0,3.0
804,7.829386,t,348.0,443.0,167.0,80.0,260.0,205.0,254.0,335.0,9.19,-3.4,-0.03,-6.81,-10.19,-104.5,0.01,0.66,0.71,0.71,0.92,0.65,-1.18,0.0,1.0,3.0
805,7.843573,t,359.0,449.0,177.0,80.0,262.0,205.0,255.0,342.0,9.25,-3.23,-0.05,-7.81,-6.75,-106.12,0.01,0.67,0.71,0.71,1.0,0.41,-0.94,0.0,1.0,3.0
806,7.858617,t,365.0,435.0,187.0,80.0,260.0,201.0,253.0,349.0,9.31,-3.06,-0.06,-8.88,-1.69,-106.75,0.02,0.67,0.7,0.7,0.58,-0.45,-0.85,0.0,1.0,3.0
807,7.874679,t,375.0,435.0,204.0,78.0,254.0,191.0,251.0,350.0,9.46,-2.55,-0.07,8.88,-7.44,-102.12,0.03,0.68,0.7,0.7,-1.14,-2.01,-0.97,0.0,1.0,3.0
808,7.888737,t,376.0,433.0,217.0,76.0,249.0,179.0,251.0,353.0,9.5,-2.39,-0.08,18.81,-5.87,-99.25,0.03,0.68,0.7,0.7,-1.14,-2.39,-0.59,0.0,1.0,3.0
809,7.903768,t,378.0,430.0,220.0,77.0,239.0,173.0,250.0,357.0,9.54,-2.24,-0.08,28.75,-6.75,-93.5,0.03,0.69,0.7,0.7,-1.64,-2.37,-0.34,0.0,1.0,3.0
810,7.918827,t,382.0,424.0,228.0,78.0,234.0,165.0,249.0,360.0,9.57,-2.09,-0.09,41.13,-13.69,-79.19,0.03,0.69,0.7,0.7,-2.13,-1.57,0.19,0.0,1.0,3.0
811,7.93383,t,391.0,435.0,263.0,78.0,211.0,146.0,232.0,365.0,9.65,-1.72,-0.09,46.63,-11.88,-71.19,0.04,0.69,0.7,0.7,-2.78,0.1,0.36,0.0,1.0,3.0
812,7.94885,t,393.0,446.0,279.0,76.0,204.0,145.0,229.0,364.0,9.67,-1.6,-0.11,48.13,-21.44,-70.87,0.03,0.7,0.7,0.7,-2.97,0.67,0.28,0.0,1.0,3.0
813,7.963853,t,394.0,454.0,293.0,77.0,190.0,135.0,234.0,362.0,9.69,-1.49,-0.15,40.0,-34.06,-70.87,0.03,0.7,0.7,0.7,-0.77,0.82,0.31,0.0,1.0,3.0
814,7.978921,t,382.0,446.0,313.0,77.0,184.0,138.0,242.0,367.0,9.72,-1.25,-0.23,32.56,-24.75,-68.5,0.03,0.7,0.7,0.7,-1.03,0.47,0.3,0.0,1.0,3.0
815,7.994925,t,396.0,430.0,319.0,78.0,180.0,134.0,250.0,359.0,9.73,-1.15,-0.26,21.44,-16.62,-64.31,0.04,0.71,0.7,0.7,-1.22,0.0,0.39,0.0,1.0,3.0
816,8.00893,t,392.0,420.0,319.0,75.0,166.0,136.0,261.0,351.0,9.75,-0.95,-0.27,-9.31,2.44,-56.06,0.04,0.71,0.7,0.7,-2.26,-0.51,-0.75,0.0,1.0,3.0
817,8.023988,t,401.0,416.0,322.0,71.0,160.0,136.0,270.0,352.0,9.77,-0.76,-0.27,-16.31,1.25,-53.94,0.04,0.71,0.7,0.7,-2.52,-0.56,-0.73,0.0,1.0,3.0
818,8.038046,t,414.0,415.0,323.0,70.0,160.0,138.0,282.0,356.0,9.77,-0.67,-0.28,-21.81,-2.37,-53.25,0.05,0.71,0.7,0.7,-2.6,-0.6,-0.43,0.0,1.0,3.0
819,8.055154,t,414.0,417.0,323.0,69.0,161.0,139.0,292.0,360.0,9.78,-0.58,-0.29,-24.19,-7.06,-54.25,0.05,0.71,0.69,0.69,-2.13,-0.72,-0.57,0.0,1.0,3.0
820,8.06831,t,410.0,414.0,325.0,73.0,158.0,140.0,302.0,365.0,9.78,-0.48,-0.31,-24.87,-10.0,-56.0,0.06,0.71,0.69,0.69,-1.04,-1.82,-0.58,0.0,1.0,3.0
821,8.084358,t,434.0,454.0,344.0,72.0,157.0,143.0,318.0,383.0,9.79,-0.2,-0.35,-23.06,-1.25,-53.44,0.07,0.71,0.69,0.69,-1.11,-3.37,-0.6,0.0,1.0,3.0
822,8.098446,t,442.0,466.0,346.0,75.0,158.0,143.0,319.0,393.0,9.79,-0.12,-0.34,-17.06,2.62,-50.19,0.06,0.72,0.69,0.69,-1.21,-3.95,-0.51,0.0,1.0,3.0
823,8.113546,t,449.0,480.0,353.0,78.0,162.0,154.0,323.0,401.0,9.8,-0.04,-0.34,9.63,4.25,-46.44,0.07,0.72,0.69,0.69,-0.43,-4.47,-1.11,0.0,1.0,3.0
824,8.128592,t,454.0,489.0,361.0,77.0,163.0,156.0,332.0,402.0,9.8,0.11,-0.32,23.81,5.31,-47.94,0.07,0.72,0.69,0.69,0.02,-4.25,-1.22,0.0,1.0,3.0
825,8.143627,t,461.0,509.0,363.0,74.0,166.0,156.0,336.0,404.0,9.79,0.19,-0.31,36.88,6.37,-50.63,0.07,0.72,0.69,0.69,1.35,-3.01,-1.5,0.0,1.0,3.0
826,8.158658,t,470.0,511.0,366.0,74.0,197.0,157.0,339.0,414.0,9.79,0.37,-0.29,56.19,11.44,-50.56,0.06,0.72,0.69,0.69,2.2,-2.77,-0.96,0.0,1.0,3.0
827,8.17374,t,477.0,511.0,370.0,74.0,214.0,161.0,339.0,414.0,9.78,0.52,-0.26,54.44,12.75,-44.94,0.06,0.72,0.69,0.69,2.3,-2.78,-0.4,0.0,1.0,3.0
828,8.188817,t,466.0,511.0,372.0,77.0,230.0,165.0,339.0,418.0,9.78,0.59,-0.24,50.06,12.06,-38.63,0.06,0.72,0.7,0.7,2.3,-2.62,0.52,0.0,1.0,3.0
829,8.203909,t,478.0,511.0,372.0,74.0,233.0,169.0,341.0,419.0,9.78,0.64,-0.23,42.06,7.94,-31.25,0.06,0.72,0.7,0.7,2.61,-2.39,0.12,0.0,1.0,3.0
830,8.21894,t,479.0,511.0,372.0,74.0,232.0,168.0,343.0,422.0,9.78,0.68,-0.22,20.31,6.31,-21.56,0.06,0.72,0.7,0.7,4.6,-1.41,-1.19,0.0,1.0,3.0
831,8.234027,t,489.0,511.0,367.0,78.0,223.0,165.0,345.0,415.0,9.77,0.77,-0.21,0.81,1.62,-13.88,0.06,0.71,0.7,0.7,4.18,-2.25,-0.69,0.0,1.0,3.0
832,8.249201,t,471.0,480.0,363.0,80.0,233.0,169.0,345.0,405.0,9.77,0.78,-0.2,2.37,3.81,-7.25,0.05,0.71,0.7,0.7,3.34,-2.65,-0.69,0.0,1.0,3.0
833,8.263233,t,452.0,398.0,348.0,80.0,237.0,170.0,331.0,395.0,9.77,0.78,-0.2,18.75,4.25,7.62,0.05,0.71,0.7,0.7,3.98,-3.14,-0.87,0.0,1.0,3.0
834,8.278594,t,442.0,369.0,339.0,83.0,240.0,167.0,313.0,398.0,9.77,0.74,-0.19,18.94,5.25,11.31,0.05,0.71,0.7,0.7,4.63,-3.1,-1.22,0.0,1.0,3.0
835,8.293622,t,429.0,354.0,296.0,84.0,240.0,162.0,288.0,386.0,9.77,0.72,-0.17,8.56,11.06,15.5,0.05,0.71,0.7,0.7,4.52,-2.5,-1.16,0.0,1.0,3.0
836,8.308615,t,353.0,322.0,221.0,84.0,240.0,163.0,283.0,351.0,9.78,0.62,-0.07,-85.31,51.69,61.63,0.05,0.71,0.71,0.71,3.12,-3.73,0.24,0.0,1.0,3.0
837,8.323629,t,301.0,326.0,190.0,82.0,228.0,171.0,274.0,336.0,9.79,0.35,0.14,-105.25,66.5,93.69,0.05,0.7,0.71,0.71,-1.34,-7.81,0.67,0.0,1.0,3.0
838,8.338648,t,282.0,298.0,174.0,80.0,222.0,187.0,268.0,344.0,9.8,0.18,0.26,-110.06,66.94,103.31,0.05,0.7,0.71,0.71,-0.15,-9.32,-2.05,0.0,1.0,3.0
839,8.353691,t,281.0,282.0,178.0,79.0,233.0,201.0,281.0,368.0,9.8,0.0,0.35,-78.75,54.56,105.62,0.04,0.69,0.72,0.72,-0.78,-10.06,-5.23,0.0,1.0,3.0
840,8.368696,t,308.0,284.0,173.0,75.0,232.0,204.0,287.0,376.0,9.79,-0.16,0.43,33.63,42.19,88.56,0.03,0.69,0.72,0.72,-1.38,-4.1,-5.93,0.0,1.0,3.0
841,8.383728,t,352.0,303.0,168.0,69.0,269.0,200.0,288.0,366.0,9.76,-0.62,0.57,83.19,16.25,100.19,0.01,0.68,0.73,0.73,0.3,-2.68,-4.02,0.0,1.0,3.0
842,8.398787,t,375.0,310.0,185.0,70.0,292.0,198.0,290.0,373.0,9.75,-0.8,0.6,94.37,12.38,110.12,0.01,-0.68,-0.73,-0.73,0.57,-1.71,-1.62,0.0,1.0,3.0
843,8.413817,t,390.0,322.0,191.0,70.0,294.0,178.0,277.0,348.0,9.73,-0.99,0.63,87.87,5.94,121.0,0.02,-0.68,-0.73,-0.73,1.14,-1.27,-0.29,0.0,1.0,3.0
844,8.428849,t,394.0,338.0,191.0,72.0,306.0,176.0,275.0,341.0,9.71,-1.65,0.7,64.06,10.44,141.75,0.06,-0.68,-0.73,-0.73,3.17,1.07,0.58,0.0,1.0,3.0
845,8.443853,t,395.0,348.0,194.0,73.0,307.0,178.0,263.0,316.0,9.59,-1.88,0.74,52.69,16.06,141.44,0.07,-0.68,-0.73,-0.73,1.44,2.24,0.98,0.0,1.0,3.0
846,8.458923,t,391.0,348.0,190.0,72.0,312.0,181.0,262.0,308.0,9.54,-2.1,0.78,38.31,17.44,137.31,0.08,-0.67,-0.73,-0.73,0.44,2.93,1.14,0.0,1.0,3.0
847,8.473961,t,374.0,338.0,183.0,74.0,299.0,178.0,252.0,301.0,9.49,-2.31,0.82,24.87,17.25,130.31,0.09,-0.67,-0.73,-0.73,-0.38,3.61,1.5,0.0,1.0,3.0
848,8.488138,t,339.0,324.0,159.0,72.0,247.0,219.0,244.0,306.0,9.34,-2.87,0.81,-60.31,-3.44,105.12,0.1,-0.67,-0.73,-0.73,-1.18,1.16,1.77,0.0,1.0,3.0
849,8.5042,t,334.0,324.0,160.0,72.0,244.0,222.0,248.0,290.0,9.28,-3.05,0.76,-67.37,-10.75,105.37,0.11,-0.67,-0.73,-0.73,-0.58,0.48,0.75,0.0,1.0,3.0
850,8.519369,t,319.0,311.0,151.0,70.0,245.0,228.0,257.0,290.0,9.23,-3.23,0.7,-47.19,-17.81,111.62,0.11,-0.67,-0.72,-0.72,1.08,-1.68,-3.32,0.0,1.0,3.0
851,8.534451,t,322.0,302.0,147.0,71.0,257.0,238.0,254.0,308.0,9.16,-3.42,0.66,-11.69,-19.12,119.25,0.13,-0.67,-0.72,-0.72,1.42,-1.65,-3.69,0.0,1.0,3.0
852,8.549672,t,356.0,330.0,146.0,71.0,272.0,258.0,242.0,338.0,9.01,-3.8,0.66,13.13,-2.62,122.37,0.14,-0.67,-0.72,-0.72,-0.55,3.14,0.94,0.0,1.0,3.0
853,8.563704,t,361.0,341.0,145.0,71.0,279.0,276.0,241.0,341.0,8.85,-4.15,0.68,0.75,8.0,108.87,0.15,-0.66,-0.72,-0.72,-0.88,3.76,2.07,0.0,1.0,3.0
854,8.578793,t,362.0,356.0,153.0,69.0,288.0,282.0,248.0,349.0,8.78,-4.3,0.7,7.56,6.75,101.81,0.16,-0.66,-0.72,-0.72,-0.9,4.16,2.47,0.0,1.0,3.0
855,8.593821,t,347.0,374.0,172.0,68.0,295.0,277.0,247.0,319.0,8.63,-4.58,0.76,33.56,5.81,90.19,0.17,-0.66,-0.71,-0.71,-1.6,3.15,1.46,0.0,1.0,3.0
856,8.608941,t,340.0,383.0,166.0,68.0,301.0,278.0,252.0,315.0,8.56,-4.7,0.79,31.25,6.44,84.12,0.18,-0.65,-0.71,-0.71,-1.82,2.58,0.81,0.0,1.0,3.0
857,8.623976,t,336.0,378.0,165.0,67.0,299.0,275.0,254.0,313.0,8.5,-4.81,0.82,13.06,6.0,71.94,0.19,-0.65,-0.71,-0.71,-2.05,2.82,-0.49,0.0,1.0,3.0
858,8.638977,t,336.0,379.0,165.0,68.0,305.0,270.0,254.0,316.0,8.38,-5.01,0.85,-5.44,4.31,60.75,0.2,-0.65,-0.71,-0.71,-2.54,3.84,-0.59,0.0,1.0,3.0
859,8.655083,t,348.0,377.0,161.0,70.0,307.0,254.0,244.0,327.0,8.28,-5.17,0.84,-11.44,2.06,53.88,0.2,-0.65,-0.71,-0.71,-2.8,4.22,-0.51,0.0,1.0,3.0
860,8.668171,t,350.0,373.0,158.0,69.0,309.0,250.0,243.0,340.0,8.24,-5.24,0.83,-15.25,-0.94,45.94,0.2,-0.65,-0.71,-0.71,-2.81,4.71,-0.36,0.0,1.0,3.0
861,8.683228,t,357.0,370.0,164.0,69.0,310.0,239.0,239.0,343.0,8.21,-5.3,0.81,-18.5,-7.25,27.81,0.2,-0.65,-0.71,-0.71,-2.77,5.08,-0.04,0.0,1.0,3.0
862,8.699347,t,354.0,359.0,156.0,68.0,299.0,224.0,234.0,330.0,8.16,-5.38,0.72,-19.12,-7.19,8.31,0.2,-0.65,-0.7,-0.7,-2.63,5.33,0.04,0.0,1.0,3.0
863,8.713448,t,351.0,358.0,158.0,68.0,288.0,218.0,234.0,316.0,8.16,-5.38,0.69,-21.87,-6.44,-2.06,0.2,-0.65,-0.7,-0.7,-2.67,5.08,0.03,0.0,1.0,3.0
864,8.728534,t,344.0,351.0,153.0,68.0,282.0,214.0,231.0,304.0,8.17,-5.37,0.66,-25.81,-5.62,-11.81,0.2,-0.65,-0.7,-0.7,-2.79,4.06,0.08,0.0,1.0,3.0
865,8.743605,t,347.0,338.0,141.0,68.0,275.0,215.0,229.0,281.0,8.19,-5.34,0.63,-30.44,-5.56,-21.25,0.19,-0.65,-0.7,-0.7,-2.89,3.66,0.2,0.0,1.0,3.0
866,8.758092,t,355.0,346.0,132.0,68.0,265.0,214.0,228.0,254.0,8.22,-5.3,0.58,-49.69,-4.44,-50.81,0.18,-0.66,-0.7,-0.7,-2.92,2.69,0.24,0.0,1.0,3.0
867,8.774293,t,346.0,344.0,121.0,69.0,261.0,216.0,242.0,203.0,8.36,-5.1,0.43,-51.88,-3.94,-58.63,0.18,-0.66,-0.7,-0.7,-2.81,0.75,0.1,0.0,1.0,3.0
868,8.788356,t,337.0,350.0,113.0,69.0,261.0,218.0,262.0,167.0,8.41,-5.01,0.39,-42.31,-2.69,-64.69,0.17,-0.66,-0.7,-0.7,-3.09,0.18,0.45,0.0,1.0,3.0
869,8.804513,t,340.0,360.0,109.0,69.0,257.0,221.0,296.0,141.0,8.54,-4.79,0.3,-43.0,-14.25,-79.37,0.15,-0.67,-0.7,-0.7,-2.25,-4.44,-1.37,0.0,1.0,3.0
870,8.81962,t,348.0,369.0,102.0,68.0,259.0,225.0,314.0,124.0,8.67,-4.56,0.16,-52.06,-20.56,-79.62,0.14,-0.67,-0.7,-0.7,-1.4,-6.21,-1.74,0.0,1.0,3.0
871,8.83468,t,401.0,358.0,103.0,69.0,274.0,242.0,326.0,117.0,8.73,-4.45,0.08,-49.88,-29.19,-70.31,0.13,-0.68,-0.7,-0.7,-0.63,-7.04,-2.49,0.0,1.0,3.0
872,8.849706,t,418.0,350.0,104.0,68.0,277.0,248.0,334.0,112.0,8.77,-4.36,-0.03,-57.38,-50.38,-57.88,0.13,-0.68,-0.69,-0.69,3.91,-8.91,-4.75,0.0,1.0,3.0
873,8.864818,t,435.0,360.0,92.0,69.0,286.0,248.0,339.0,111.0,8.84,-4.21,-0.3,-57.94,-66.75,-42.69,0.12,-0.7,-0.68,-0.68,5.14,-10.06,-3.79,0.0,1.0,3.0
874,8.879851,t,444.0,357.0,95.0,68.0,290.0,242.0,330.0,112.0,8.86,-4.16,-0.46,16.81,-38.25,-8.06,0.12,-0.7,-0.68,-0.68,3.23,-6.64,-0.41,0.0,1.0,3.0
875,8.893909,t,468.0,366.0,99.0,68.0,290.0,224.0,317.0,113.0,8.85,-4.19,-0.42,37.88,5.69,18.06,0.12,-0.7,-0.68,-0.68,2.11,-5.02,-0.5,0.0,1.0,3.0
876,8.909032,t,488.0,372.0,99.0,68.0,279.0,223.0,310.0,119.0,8.84,-4.22,-0.38,37.88,5.69,18.06,0.12,-0.7,-0.68,-0.68,1.2,-3.14,-1.02,0.0,1.0,3.0
877,8.9231,t,511.0,387.0,105.0,68.0,269.0,216.0,312.0,123.0,8.8,-4.29,-0.35,-9.88,6.12,22.69,0.13,-0.69,-0.68,-0.68,0.99,0.82,0.67,0.0,1.0,3.0
878,8.938262,t,511.0,407.0,102.0,68.0,270.0,216.0,322.0,129.0,8.79,-4.31,-0.38,-15.94,-28.56,3.94,0.13,-0.7,-0.68,-0.68,2.06,1.15,1.04,0.0,1.0,3.0
879,8.953411,t,511.0,430.0,110.0,68.0,279.0,220.0,336.0,139.0,8.79,-4.3,-0.51,-18.06,-41.44,-13.13,0.12,-0.7,-0.68,-0.68,2.38,0.57,1.41,0.0,1.0,3.0
880,8.969548,t,511.0,484.0,119.0,70.0,291.0,231.0,356.0,152.0,8.81,-4.26,-0.58,-15.19,-39.38,-26.06,0.12,-0.7,-0.67,-0.67,2.55,-3.19,4.07,0.0,1.0,3.0
881,8.984601,t,511.0,511.0,138.0,78.0,324.0,232.0,350.0,212.0,8.85,-4.17,-0.64,13.13,-13.75,-28.56,0.12,-0.7,-0.67,-0.67,3.22,-5.14,4.06,0.0,1.0,3.0
882,8.999647,t,511.0,511.0,148.0,79.0,335.0,233.0,361.0,238.0,8.86,-4.14,-0.63,-1.62,7.0,-18.12,0.12,-0.7,-0.67,-0.67,1.04,1.83,-1.24,0.0,1.0,3.0
883,9.013652,t,511.0,511.0,187.0,79.0,342.0,231.0,377.0,270.0,8.86,-4.14,-0.61,-11.56,16.69,-0.56,0.12,-0.7,-0.68,-0.68,-0.14,4.7,-1.75,0.0,1.0,3.0
884,9.029683,t,511.0,511.0,270.0,74.0,373.0,246.0,375.0,319.0,8.85,-4.17,-0.52,51.06,-4.37,-6.56,0.12,-0.7,-0.68,-0.68,-1.25,7.23,4.58,0.0,1.0,3.0
885,9.043745,t,511.0,511.0,270.0,72.0,374.0,247.0,363.0,327.0,8.87,-4.13,-0.51,37.81,-12.81,-29.25,0.13,-0.7,-0.68,-0.68,-0.8,6.48,5.68,0.0,1.0,3.0
886,9.058802,t,511.0,511.0,274.0,72.0,387.0,248.0,358.0,339.0,8.91,-4.04,-0.52,-4.62,-6.69,-54.25,0.12,-0.7,-0.68,-0.68,-0.34,4.49,2.5,0.0,1.0,3.0
887,9.073834,t,511.0,511.0,289.0,72.0,398.0,252.0,364.0,346.0,8.96,-3.93,-0.54,-39.5,4.5,-71.19,0.11,-0.71,-0.68,-0.68,1.2,-2.22,-0.94,0.0,1.0,3.0
888,9.088852,t,511.0,511.0,314.0,71.0,394.0,255.0,370.0,362.0,9.1,-3.58,-0.58,18.06,-14.56,-66.94,0.1,-0.71,-0.68,-0.68,1.43,-1.33,0.64,0.0,1.0,3.0
889,9.104884,t,511.0,511.0,318.0,71.0,393.0,255.0,352.0,369.0,9.13,-3.5,-0.6,34.31,-20.37,-55.88,0.1,-0.71,-0.68,-0.68,1.77,-0.01,0.79,0.0,1.0,3.0
890,9.118953,t,511.0,511.0,324.0,71.0,379.0,258.0,343.0,371.0,9.16,-3.43,-0.6,47.44,-23.12,-46.31,0.1,-0.71,-0.68,-0.68,2.01,1.97,0.29,0.0,1.0,3.0
891,9.13401,t,511.0,511.0,335.0,72.0,367.0,253.0,335.0,376.0,9.18,-3.37,-0.61,56.56,-16.37,-43.75,0.1,-0.72,-0.68,-0.68,1.6,2.34,0.27,0.0,1.0,3.0
892,9.14814,t,511.0,511.0,336.0,72.0,352.0,252.0,338.0,383.0,9.25,-3.18,-0.61,38.0,-11.06,-44.19,0.1,-0.72,-0.68,-0.68,1.4,3.3,0.43,0.0,1.0,3.0
893,9.164229,t,511.0,511.0,340.0,70.0,328.0,244.0,328.0,381.0,9.27,-3.11,-0.6,28.56,-5.12,-45.19,0.1,-0.72,-0.68,-0.68,1.26,3.92,0.22,0.0,1.0,3.0
894,9.178347,t,511.0,511.0,343.0,71.0,318.0,246.0,331.0,386.0,9.3,-3.03,-0.59,18.62,1.44,-48.88,0.1,-0.72,-0.68,-0.68,1.19,4.31,-0.09,0.0,1.0,3.0
895,9.193434,t,511.0,511.0,354.0,69.0,311.0,243.0,319.0,391.0,9.36,-2.85,-0.56,-3.06,12.5,-60.44,0.09,-0.72,-0.68,-0.68,1.65,3.02,-0.6,0.0,1.0,3.0
896,9.208522,t,511.0,511.0,350.0,69.0,298.0,242.0,317.0,392.0,9.39,-2.74,-0.54,-15.69,16.19,-64.75,0.08,-0.72,-0.68,-0.68,0.93,2.35,-0.68,0.0,1.0,3.0
897,9.2246,t,511.0,511.0,339.0,68.0,294.0,242.0,315.0,390.0,9.46,-2.52,-0.51,-35.69,18.69,-69.87,0.08,-0.72,-0.68,-0.68,0.61,0.86,-0.7,0.0,1.0,3.0
898,9.239648,t,501.0,465.0,326.0,73.0,278.0,231.0,306.0,381.0,9.52,-2.27,-0.51,-42.19,7.25,-72.25,0.06,-0.72,-0.69,-0.69,0.23,-0.15,-0.55,0.0,1.0,3.0
899,9.254704,t,480.0,439.0,319.0,74.0,263.0,223.0,311.0,377.0,9.55,-2.15,-0.52,-40.5,1.5,-71.69,0.06,-0.72,-0.69,-0.69,-0.23,-0.21,-0.45,0.0,1.0,3.0
900,9.269707,t,464.0,425.0,316.0,74.0,250.0,218.0,310.0,371.0,9.57,-2.03,-0.54,-35.44,-2.25,-70.69,0.04,-0.72,-0.69,-0.69,-0.37,-0.28,-0.28,0.0,1.0,3.0
901,9.284737,t,442.0,418.0,315.0,70.0,242.0,214.0,300.0,364.0,9.62,-1.8,-0.56,-17.44,-2.5,-69.31,0.04,-0.72,-0.69,-0.69,-0.47,-0.9,-0.5,0.0,1.0,3.0
902,9.299308,t,439.0,395.0,318.0,72.0,220.0,177.0,290.0,366.0,9.66,-1.57,-0.57,-3.56,-0.81,-66.56,0.03,-0.72,-0.69,-0.69,-0.7,-0.26,-0.67,0.0,1.0,3.0
903,9.314495,t,430.0,398.0,326.0,73.0,221.0,176.0,295.0,381.0,9.67,-1.47,-0.57,5.19,-1.5,-62.5,0.03,-0.72,-0.69,-0.69,-0.73,0.45,-0.19,0.0,1.0,3.0
904,9.328556,t,430.0,405.0,325.0,72.0,215.0,173.0,290.0,383.0,9.69,-1.37,-0.57,9.69,-5.94,-59.56,0.02,-0.72,-0.69,-0.69,-0.44,-0.41,-0.26,0.0,1.0,3.0
905,9.344612,t,433.0,420.0,325.0,73.0,203.0,163.0,294.0,359.0,9.72,-1.12,-0.57,-0.5,5.25,-44.31,0.02,-0.72,-0.69,-0.69,-0.82,-0.84,-0.03,0.0,1.0,3.0
906,9.359656,t,436.0,420.0,326.0,74.0,201.0,165.0,293.0,359.0,9.73,-1.05,-0.55,-5.06,8.69,-38.69,0.01,-0.72,-0.69,-0.69,-1.18,-1.18,-0.3,0.0,1.0,3.0
907,9.374689,t,435.0,426.0,329.0,76.0,201.0,166.0,300.0,360.0,9.74,-0.99,-0.54,-9.69,10.88,-34.31,0.01,-0.72,-0.69,-0.69,-1.38,-1.39,-0.76,0.0,1.0,3.0
908,9.389722,t,440.0,432.0,330.0,75.0,202.0,170.0,305.0,362.0,9.74,-0.94,-0.52,-12.06,9.63,-30.69,0.01,-0.72,-0.69,-0.69,-1.26,-1.46,-1.08,0.0,1.0,3.0
909,9.404754,t,453.0,461.0,337.0,74.0,201.0,173.0,316.0,369.0,9.75,-0.85,-0.51,-15.81,4.0,-24.12,0.0,-0.72,-0.69,-0.69,-1.63,-2.02,-0.49,0.0,1.0,3.0
910,9.418786,t,464.0,471.0,339.0,74.0,200.0,175.0,319.0,373.0,9.76,-0.77,-0.5,-17.37,1.81,-24.94,0.0,0.72,0.69,0.69,-1.25,-1.96,-0.33,0.0,1.0,3.0
911,9.43379,t,482.0,487.0,340.0,77.0,201.0,174.0,318.0,382.0,9.76,-0.72,-0.5,-16.69,-0.56,-27.12,0.0,0.72,0.69,0.69,-1.09,-2.11,-0.41,0.0,1.0,3.0
912,9.448848,t,481.0,487.0,353.0,75.0,202.0,173.0,334.0,383.0,9.77,-0.61,-0.52,-5.69,-3.56,-35.19,0.01,0.72,0.69,0.69,0.31,-1.93,-0.5,0.0,1.0,3.0
913,9.463937,t,461.0,490.0,359.0,75.0,208.0,176.0,343.0,388.0,9.77,-0.54,-0.52,-0.44,-2.12,-38.56,0.01,0.72,0.69,0.69,0.74,-1.42,-0.51,0.0,1.0,3.0
914,9.479021,t,450.0,501.0,365.0,74.0,209.0,175.0,346.0,390.0,9.78,-0.4,-0.51,3.19,4.06,-44.19,0.02,0.72,0.69,0.69,0.99,-1.27,-0.52,0.0,1.0,3.0
915,9.493146,t,461.0,502.0,366.0,72.0,202.0,172.0,338.0,387.0,9.78,-0.32,-0.5,1.31,6.0,-46.06,0.02,0.72,0.69,0.69,1.34,-1.62,-0.62,0.0,1.0,3.0
916,9.508318,t,462.0,501.0,368.0,71.0,207.0,181.0,353.0,405.0,9.79,-0.24,-0.49,-1.37,6.56,-46.63,0.02,0.72,0.69,0.69,1.34,-1.62,-0.62,0.0,1.0,3.0
917,9.523423,t,486.0,511.0,371.0,74.0,215.0,183.0,356.0,422.0,9.79,-0.09,-0.47,-5.56,7.44,-42.31,0.03,0.72,0.69,0.69,3.09,-2.74,-0.82,0.0,1.0,3.0
918,9.538534,t,497.0,511.0,367.0,74.0,216.0,176.0,342.0,404.0,9.79,-0.03,-0.45,-9.13,15.31,-33.31,0.03,0.72,0.69,0.69,2.66,-3.15,-0.88,0.0,1.0,3.0
919,9.553631,t,502.0,511.0,368.0,75.0,220.0,176.0,338.0,406.0,9.79,0.06,-0.39,-8.5,17.81,-14.81,0.04,0.72,0.69,0.69,2.36,-3.65,-0.84,0.0,1.0,3.0
920,9.569726,t,507.0,511.0,367.0,76.0,226.0,172.0,326.0,401.0,9.8,0.09,-0.32,-5.37,21.75,-4.25,0.04,0.72,0.69,0.69,2.09,-4.01,-0.87,0.0,1.0,3.0
921,9.583729,t,504.0,490.0,355.0,78.0,226.0,165.0,309.0,391.0,9.8,0.09,-0.29,-4.69,17.62,4.19,0.04,0.72,0.7,0.7,2.32,-4.59,-0.99,0.0,1.0,3.0
922,9.598813,t,490.0,446.0,338.0,76.0,226.0,162.0,285.0,385.0,9.8,0.07,-0.27,-5.06,13.31,13.19,0.04,0.72,0.7,0.7,3.65,-6.06,-0.84,0.0,1.0,3.0
923,9.613845,t,430.0,360.0,278.0,78.0,222.0,154.0,254.0,374.0,9.8,-0.11,-0.22,-26.87,13.94,49.56,0.03,0.71,0.7,0.7,3.81,-6.41,-1.06,0.0,1.0,3.0
924,9.628874,t,400.0,333.0,234.0,79.0,225.0,157.0,246.0,362.0,9.8,-0.22,-0.17,-39.94,25.19,65.81,0.03,0.71,0.7,0.7,3.77,-6.97,-1.5,0.0,1.0,3.0
925,9.64394,t,390.0,312.0,206.0,81.0,225.0,175.0,239.0,359.0,9.79,-0.36,-0.11,-50.06,37.56,82.0,0.03,0.71,0.7,0.7,3.98,-7.35,-1.42,0.0,1.0,3.0
926,9.658972,t,376.0,309.0,186.0,77.0,232.0,194.0,244.0,360.0,9.79,-0.52,-0.03,-49.38,50.56,95.62,0.03,0.71,0.71,0.71,3.54,-7.02,-1.35,0.0,1.0,3.0
927,9.674031,t,387.0,300.0,176.0,74.0,243.0,196.0,242.0,361.0,9.78,-1.12,0.25,14.38,56.81,130.31,0.01,0.69,0.72,0.72,3.02,-1.98,-2.2,0.0,1.0,3.0
928,9.688149,t,418.0,287.0,198.0,75.0,302.0,190.0,282.0,383.0,9.7,-1.35,0.34,43.5,47.94,136.25,0.0,-0.69,-0.72,-0.72,3.36,-0.22,-1.94,0.0,1.0,3.0
929,9.703302,t,447.0,282.0,202.0,72.0,311.0,171.0,277.0,369.0,9.66,-1.58,0.43,68.19,41.75,138.37,0.01,-0.68,-0.72,-0.72,2.78,0.95,-1.3,0.0,1.0,3.0
930,9.718466,t,480.0,294.0,202.0,72.0,334.0,161.0,284.0,363.0,9.62,-1.8,0.5,74.25,29.06,138.62,0.03,-0.68,-0.72,-0.72,2.69,1.35,0.27,0.0,1.0,3.0
931,9.733617,t,511.0,325.0,191.0,72.0,380.0,167.0,282.0,368.0,9.46,-2.49,0.58,7.69,-2.0,146.0,0.06,-0.67,-0.73,-0.73,4.32,-2.26,1.11,0.0,1.0,3.0
932,9.74865,t,511.0,325.0,184.0,71.0,372.0,167.0,281.0,367.0,9.39,-2.75,0.57,12.19,-9.94,155.69,0.07,-0.67,-0.72,-0.72,4.81,-2.5,1.14,0.0,1.0,3.0
933,9.76368,t,511.0,322.0,181.0,71.0,385.0,170.0,283.0,367.0,9.31,-3.02,0.56,23.06,-10.75,169.37,0.08,-0.67,-0.72,-0.72,4.85,-1.2,1.71,0.0,1.0,3.0
934,9.778774,t,491.0,318.0,174.0,72.0,387.0,182.0,302.0,383.0,9.1,-3.6,0.58,15.75,1.31,189.0,0.12,-0.66,-0.72,-0.72,1.86,1.01,1.2,0.0,1.0,3.0
935,9.793838,t,454.0,315.0,163.0,72.0,419.0,199.0,302.0,386.0,8.97,-3.9,0.59,-9.31,10.63,185.75,0.13,-0.66,-0.72,-0.72,1.48,1.06,0.87,0.0,1.0,3.0
936,9.808869,t,451.0,310.0,158.0,72.0,418.0,211.0,299.0,387.0,8.71,-4.46,0.6,-18.87,11.88,182.44,0.14,-0.66,-0.72,-0.72,1.59,1.46,0.56,0.0,1.0,3.0
937,9.823874,t,440.0,308.0,156.0,71.0,420.0,226.0,293.0,382.0,8.56,-4.72,0.6,-24.44,11.25,177.31,0.15,-0.65,-0.71,-0.71,0.86,1.26,0.49,0.0,1.0,3.0
938,9.838903,t,412.0,329.0,157.0,69.0,431.0,249.0,301.0,392.0,8.28,-5.21,0.56,-35.06,2.37,160.69,0.17,-0.65,-0.7,-0.7,-0.11,1.14,0.37,0.0,1.0,3.0
939,9.853898,t,407.0,337.0,159.0,68.0,430.0,254.0,304.0,388.0,7.99,-5.66,0.47,-23.06,-19.62,158.44,0.18,-0.65,-0.7,-0.7,-0.62,2.78,0.43,0.0,1.0,3.0
940,9.870228,t,401.0,345.0,159.0,68.0,426.0,260.0,303.0,376.0,7.83,-5.87,0.42,-17.87,-19.12,157.19,0.19,-0.64,-0.7,-0.7,-0.08,3.77,0.92,0.0,1.0,3.0
941,9.883989,t,391.0,353.0,155.0,68.0,425.0,262.0,303.0,361.0,7.68,-6.08,0.38,-25.06,-15.19,151.87,0.2,-0.64,-0.69,-0.69,-0.1,4.0,0.97,0.0,1.0,3.0
942,9.899029,t,391.0,356.0,148.0,68.0,419.0,264.0,309.0,358.0,7.52,-6.27,0.32,-38.0,-11.81,144.69,0.21,-0.64,-0.68,-0.68,-1.11,3.77,0.59,0.0,1.0,3.0
