index,time,type,FSR1,FSR2,FSR3,FSR4,FSR5,FSR6,FSR7,FSR8,GravX,GravY,GravZ,GyroX,GyroY,GyroZ,QuatW,QuatX,QuatY,QuatZ,LiAccX,LiAccY,LiAccZ,GyroCal,AccelCal,MagCal
1516,18.508968,t,511.0,511.0,347.0,86.0,298.0,276.0,400.0,494.0,9.73,-1.17,-0.12,-12.69,6.56,3.31,0.64,-0.38,-0.3,-0.3,0.11,-0.03,-0.24,0.0,1.0,3.0
1517,18.524098,t,511.0,511.0,346.0,85.0,291.0,266.0,385.0,480.0,9.73,-1.18,-0.11,-12.56,7.06,3.25,0.64,-0.38,-0.3,-0.3,0.09,0.0,-0.27,0.0,1.0,3.0
1518,18.539159,t,511.0,511.0,347.0,84.0,291.0,266.0,386.0,477.0,9.73,-1.19,-0.1,-12.5,7.25,3.44,0.64,-0.38,-0.3,-0.3,0.0,-0.05,-0.27,0.0,1.0,3.0
1519,18.55419,t,511.0,511.0,346.0,84.0,294.0,274.0,398.0,493.0,9.73,-1.2,-0.09,-12.19,6.75,3.56,0.63,-0.39,-0.31,-0.31,0.0,-0.07,-0.19,0.0,1.0,3.0
1520,18.569308,t,511.0,511.0,343.0,84.0,292.0,274.0,402.0,501.0,9.73,-1.22,-0.07,-13.13,6.5,3.75,0.63,-0.39,-0.31,-0.31,0.03,-0.03,-0.09,0.0,1.0,3.0
1521,18.584438,t,511.0,511.0,342.0,84.0,288.0,265.0,382.0,471.0,9.72,-1.22,-0.06,-13.13,6.31,3.87,0.63,-0.39,-0.31,-0.31,0.03,-0.05,-0.19,0.0,1.0,3.0
1522,18.599525,t,509.0,511.0,342.0,86.0,292.0,270.0,390.0,477.0,9.72,-1.23,-0.06,-12.44,6.06,3.44,0.63,-0.4,-0.32,-0.32,0.01,-0.05,-0.14,0.0,1.0,3.0
1523,18.614586,t,511.0,511.0,339.0,85.0,286.0,262.0,382.0,464.0,9.72,-1.23,-0.05,-11.5,5.56,2.94,0.63,-0.4,-0.32,-0.32,0.0,-0.01,-0.09,0.0,1.0,3.0
1524,18.629619,t,500.0,511.0,341.0,86.0,290.0,267.0,390.0,474.0,9.72,-1.24,-0.04,-8.94,5.25,1.25,0.63,-0.4,-0.32,-0.32,0.03,-0.01,-0.12,0.0,1.0,3.0
1525,18.645056,t,510.0,511.0,339.0,85.0,285.0,259.0,379.0,462.0,9.72,-1.24,-0.03,-8.19,5.37,0.69,0.62,-0.41,-0.33,-0.33,0.14,-0.05,-0.03,0.0,1.0,3.0
1526,18.659089,t,507.0,511.0,339.0,85.0,284.0,260.0,379.0,462.0,9.72,-1.24,-0.02,-7.12,5.5,0.25,0.62,-0.41,-0.33,-0.33,0.07,0.0,-0.04,0.0,1.0,3.0
1527,18.673092,t,508.0,511.0,341.0,85.0,284.0,260.0,380.0,462.0,9.72,-1.24,-0.01,-5.37,5.19,-0.37,0.62,-0.41,-0.33,-0.33,0.07,-0.02,-0.09,0.0,1.0,3.0
1528,18.689244,t,498.0,511.0,344.0,86.0,285.0,264.0,379.0,458.0,9.72,-1.23,0.0,-2.37,4.87,-2.75,0.62,-0.41,-0.34,-0.34,0.01,-0.07,-0.25,0.0,1.0,3.0
1529,18.704332,t,510.0,511.0,343.0,86.0,285.0,261.0,381.0,466.0,9.72,-1.23,0.0,-1.5,4.5,-3.37,0.62,-0.41,-0.34,-0.34,0.02,-0.13,-0.2,0.0,1.0,3.0
1530,18.718473,t,511.0,511.0,342.0,85.0,283.0,261.0,381.0,467.0,9.72,-1.22,0.01,-0.62,4.75,-3.37,0.62,-0.41,-0.34,-0.34,0.03,-0.12,-0.23,0.0,1.0,3.0
1531,18.734638,t,511.0,511.0,341.0,86.0,285.0,260.0,380.0,467.0,9.72,-1.22,0.01,0.06,4.62,-3.56,0.62,-0.42,-0.35,-0.35,0.04,-0.15,-0.18,0.0,1.0,3.0
1532,18.748708,t,511.0,511.0,340.0,86.0,285.0,260.0,380.0,466.0,9.73,-1.2,0.04,1.5,5.12,-4.37,0.62,-0.42,-0.35,-0.35,0.03,-0.18,-0.15,0.0,1.0,3.0
1533,18.76376,t,511.0,511.0,341.0,86.0,286.0,261.0,381.0,470.0,9.73,-1.2,0.04,1.12,5.5,-4.5,0.62,-0.42,-0.35,-0.35,-0.03,-0.37,-0.23,0.0,1.0,3.0
1534,18.778914,t,511.0,511.0,340.0,86.0,287.0,261.0,381.0,474.0,9.73,-1.19,0.05,1.69,5.62,-4.37,0.62,-0.42,-0.35,-0.35,-0.03,-0.45,-0.21,0.0,1.0,3.0
1535,18.793917,t,511.0,511.0,338.0,86.0,287.0,258.0,379.0,473.0,9.73,-1.19,0.06,2.87,6.31,-2.75,0.62,-0.42,-0.35,-0.35,0.05,-0.88,-0.24,0.0,1.0,3.0
1536,18.808946,t,502.0,511.0,342.0,87.0,291.0,263.0,375.0,463.0,9.73,-1.18,0.08,6.56,6.44,-1.06,0.62,-0.42,-0.35,-0.35,-0.02,-1.01,-0.23,0.0,1.0,3.0
1537,18.824006,t,495.0,511.0,335.0,86.0,293.0,266.0,385.0,475.0,9.73,-1.18,0.11,7.87,6.31,0.88,0.62,-0.42,-0.35,-0.35,-0.08,-1.14,-0.2,0.0,1.0,3.0
1538,18.838146,t,490.0,511.0,334.0,88.0,291.0,261.0,374.0,462.0,9.73,-1.18,0.12,9.5,6.25,3.56,0.62,-0.42,-0.35,-0.35,-0.03,-1.61,-0.44,0.0,1.0,3.0
1539,18.853548,t,490.0,492.0,328.0,86.0,286.0,250.0,355.0,443.0,9.73,-1.2,0.13,11.5,6.75,6.81,0.62,-0.42,-0.35,-0.35,-0.02,-1.88,-0.53,0.0,1.0,3.0
1540,18.8696,t,486.0,442.0,318.0,86.0,286.0,246.0,345.0,431.0,9.72,-1.28,0.19,24.75,7.56,23.19,0.62,-0.42,-0.35,-0.35,-0.2,-2.88,-0.24,0.0,1.0,3.0
1541,18.884607,t,445.0,412.0,301.0,84.0,288.0,240.0,333.0,412.0,9.71,-1.33,0.2,29.62,7.81,30.19,0.62,-0.42,-0.35,-0.35,-0.87,-3.15,-0.07,0.0,1.0,3.0
1542,18.899674,t,441.0,406.0,290.0,83.0,282.0,227.0,314.0,389.0,9.7,-1.38,0.23,33.44,8.38,33.31,0.62,-0.43,-0.35,-0.35,-0.39,-3.16,0.02,0.0,1.0,3.0
1543,18.914683,t,419.0,387.0,277.0,86.0,279.0,230.0,292.0,376.0,9.68,-1.54,0.28,33.19,13.0,51.88,0.63,-0.43,-0.34,-0.34,-0.61,-2.93,-0.08,0.0,1.0,3.0
1544,18.92968,t,411.0,376.0,269.0,84.0,278.0,222.0,273.0,364.0,9.64,-1.74,0.36,31.87,16.69,67.62,0.64,-0.43,-0.33,-0.33,-0.68,-2.86,-0.13,0.0,1.0,3.0
1545,18.944684,t,403.0,377.0,264.0,82.0,278.0,218.0,268.0,354.0,9.61,-1.88,0.39,26.5,15.88,82.25,0.64,-0.43,-0.33,-0.33,3.28,-2.6,1.99,0.0,1.0,3.0
1546,18.958685,t,392.0,372.0,246.0,81.0,276.0,213.0,265.0,347.0,9.57,-2.07,0.41,12.69,11.5,115.87,0.65,-0.44,-0.32,-0.32,-3.62,-2.25,-2.78,0.0,1.0,3.0
1547,18.974746,t,397.0,374.0,247.0,76.0,277.0,212.0,265.0,346.0,9.53,-2.22,0.46,43.19,24.0,94.94,0.65,-0.44,-0.32,-0.32,0.69,-1.77,-0.73,0.0,1.0,3.0
1548,18.988775,t,383.0,379.0,245.0,79.0,286.0,219.0,265.0,328.0,9.41,-2.65,0.62,45.19,19.0,86.31,0.66,-0.44,-0.31,-0.31,1.24,0.27,0.21,0.0,1.0,3.0
1549,19.003807,t,377.0,394.0,238.0,79.0,283.0,214.0,267.0,319.0,9.37,-2.78,0.67,28.44,23.0,82.0,0.67,-0.45,-0.3,-0.3,1.24,0.68,1.06,0.0,1.0,3.0
1550,19.01881,t,370.0,394.0,229.0,78.0,275.0,221.0,258.0,313.0,9.33,-2.91,0.72,5.75,24.75,79.87,0.67,-0.45,-0.29,-0.29,1.29,1.31,1.85,0.0,1.0,3.0
1551,19.033867,t,358.0,370.0,219.0,79.0,261.0,224.0,251.0,309.0,9.29,-3.03,0.75,-24.44,20.19,73.75,0.67,-0.46,-0.29,-0.29,1.01,1.76,0.15,0.0,1.0,3.0
1552,19.048897,t,343.0,326.0,190.0,79.0,250.0,217.0,264.0,293.0,9.17,-3.37,0.78,-17.25,9.81,63.88,0.67,-0.47,-0.29,-0.29,0.88,1.51,-1.57,0.0,1.0,3.0
1553,19.063042,t,337.0,318.0,189.0,79.0,253.0,209.0,266.0,297.0,9.13,-3.46,0.79,-6.69,5.69,56.75,0.68,-0.47,-0.29,-0.29,0.79,1.34,-2.04,0.0,1.0,3.0
1554,19.079172,t,344.0,318.0,184.0,78.0,253.0,208.0,266.0,297.0,9.08,-3.59,0.8,2.5,-0.31,37.13,0.68,-0.47,-0.28,-0.28,0.2,1.13,-1.77,0.0,1.0,3.0
1555,19.093233,t,350.0,318.0,178.0,77.0,262.0,214.0,266.0,310.0,9.07,-3.64,0.79,-3.5,-5.56,27.81,0.68,-0.48,-0.29,-0.29,-0.14,0.94,-0.66,0.0,1.0,3.0
1556,19.109315,t,374.0,315.0,186.0,74.0,268.0,214.0,270.0,318.0,9.04,-3.71,0.75,-6.69,-11.5,21.12,0.68,-0.48,-0.29,-0.29,0.03,0.23,-0.43,0.0,1.0,3.0
1557,19.124408,t,374.0,315.0,186.0,74.0,268.0,214.0,270.0,318.0,9.03,-3.74,0.73,-1.31,-14.13,16.44,0.68,-0.48,-0.28,-0.28,-0.26,-0.58,0.1,0.0,1.0,3.0
1558,19.139411,t,400.0,312.0,187.0,71.0,275.0,217.0,288.0,330.0,9.02,-3.76,0.71,24.56,-13.94,9.56,0.68,-0.48,-0.28,-0.28,-0.54,-0.76,0.01,0.0,1.0,3.0
1559,19.154415,t,402.0,309.0,184.0,69.0,278.0,217.0,292.0,336.0,9.01,-3.78,0.71,35.38,-12.19,7.69,0.68,-0.48,-0.28,-0.28,-1.02,-0.98,-0.05,0.0,1.0,3.0
1560,19.169418,t,396.0,303.0,179.0,68.0,286.0,221.0,298.0,335.0,9.01,-3.79,0.74,46.94,-11.69,6.87,0.68,-0.48,-0.27,-0.27,-0.88,-1.06,-0.01,0.0,1.0,3.0
1561,19.184409,t,398.0,303.0,179.0,67.0,286.0,219.0,301.0,334.0,9.01,-3.79,0.75,48.5,-12.56,7.06,0.68,-0.48,-0.27,-0.27,-0.95,-0.89,-0.23,0.0,1.0,3.0
1562,19.199423,t,402.0,307.0,179.0,68.0,288.0,218.0,309.0,334.0,9.0,-3.8,0.76,47.44,-13.19,7.0,0.68,-0.47,-0.27,-0.27,-1.07,-0.69,-0.56,0.0,1.0,3.0
1563,19.214547,t,404.0,306.0,183.0,68.0,286.0,217.0,319.0,332.0,9.0,-3.8,0.75,31.81,-18.94,1.12,0.69,-0.47,-0.26,-0.26,-1.24,0.0,-0.41,0.0,1.0,3.0
1564,19.229635,t,406.0,309.0,179.0,68.0,285.0,219.0,323.0,333.0,9.0,-3.8,0.74,22.44,-19.75,-3.19,0.69,-0.47,-0.26,-0.26,-1.23,-0.12,-0.35,0.0,1.0,3.0
1565,19.244692,t,418.0,313.0,180.0,69.0,283.0,221.0,323.0,332.0,9.01,-3.78,0.71,12.56,-20.31,-6.37,0.69,-0.47,-0.26,-0.26,-1.45,-0.51,-0.04,0.0,1.0,3.0
1566,19.259751,t,425.0,314.0,182.0,69.0,282.0,224.0,325.0,332.0,9.02,-3.77,0.68,4.94,-21.75,-8.88,0.69,-0.47,-0.26,-0.26,-1.57,-1.01,-0.62,0.0,1.0,3.0
1567,19.27481,t,447.0,319.0,200.0,69.0,283.0,240.0,335.0,343.0,9.06,-3.71,0.54,-2.94,-32.63,-15.44,0.68,-0.47,-0.26,-0.26,-1.13,-0.33,-1.01,0.0,1.0,3.0
1568,19.28887,t,464.0,339.0,227.0,70.0,282.0,244.0,346.0,356.0,9.07,-3.68,0.49,-1.44,-35.06,-15.5,0.68,-0.47,-0.26,-0.26,-0.95,0.26,-0.55,0.0,1.0,3.0
1569,19.303928,t,472.0,349.0,251.0,70.0,293.0,247.0,358.0,367.0,9.08,-3.66,0.43,0.62,-36.88,-15.56,0.68,-0.47,-0.25,-0.25,-0.92,0.78,-0.56,0.0,1.0,3.0
1570,19.318931,t,476.0,363.0,262.0,74.0,305.0,253.0,374.0,386.0,9.1,-3.63,0.37,6.12,-40.44,-17.19,0.67,-0.47,-0.25,-0.25,-0.97,1.94,0.05,0.0,1.0,3.0
1571,19.334934,t,511.0,407.0,296.0,77.0,307.0,248.0,376.0,414.0,9.13,-3.55,0.23,-2.37,-54.38,-37.63,0.67,-0.47,-0.25,-0.25,1.23,2.2,2.33,0.0,1.0,3.0
1572,19.348938,t,511.0,422.0,306.0,79.0,318.0,260.0,395.0,434.0,9.18,-3.42,0.05,-11.69,-54.44,-45.88,0.66,-0.47,-0.25,-0.25,3.56,0.1,0.17,0.0,1.0,3.0
1573,19.363939,t,511.0,440.0,318.0,79.0,313.0,250.0,381.0,423.0,9.21,-3.35,-0.02,-7.69,-49.06,-47.69,0.66,-0.46,-0.25,-0.25,4.18,-0.52,0.04,0.0,1.0,3.0
1574,19.378943,t,511.0,504.0,347.0,78.0,326.0,251.0,385.0,439.0,9.26,-3.21,-0.14,12.81,-38.0,-43.56,0.65,-0.46,-0.25,-0.25,3.3,0.56,1.18,0.0,1.0,3.0
1575,19.393946,t,511.0,511.0,361.0,76.0,325.0,248.0,387.0,446.0,9.28,-3.14,-0.19,16.69,-35.0,-41.19,0.65,-0.46,-0.25,-0.25,2.09,1.73,0.14,0.0,1.0,3.0
1576,19.408949,t,511.0,511.0,366.0,76.0,322.0,250.0,388.0,458.0,9.3,-3.07,-0.23,12.63,-29.56,-42.63,0.65,-0.46,-0.26,-0.26,1.85,1.76,0.19,0.0,1.0,3.0
1577,19.424953,t,511.0,511.0,369.0,76.0,323.0,252.0,389.0,472.0,9.33,-3.0,-0.26,7.12,-7.75,-42.5,0.65,-0.45,-0.26,-0.26,0.18,0.76,0.41,0.0,1.0,3.0
1578,19.438956,t,511.0,511.0,379.0,78.0,331.0,254.0,392.0,482.0,9.39,-2.8,-0.29,5.25,-0.06,-39.25,0.65,-0.45,-0.26,-0.26,-0.01,0.44,0.21,0.0,1.0,3.0
1579,19.45395,t,511.0,511.0,383.0,78.0,337.0,260.0,394.0,498.0,9.4,-2.74,-0.28,4.75,5.37,-34.19,0.65,-0.45,-0.26,-0.26,-0.19,0.26,0.09,0.0,1.0,3.0
1580,19.468963,t,511.0,511.0,382.0,78.0,341.0,259.0,396.0,510.0,9.42,-2.7,-0.27,4.19,6.19,-29.44,0.64,-0.44,-0.27,-0.27,0.55,-0.03,-0.69,0.0,1.0,3.0
1581,19.484967,t,511.0,511.0,380.0,77.0,351.0,262.0,394.0,511.0,9.45,-2.58,-0.25,8.69,0.81,-21.94,0.64,-0.44,-0.27,-0.27,1.42,-0.73,-0.7,0.0,1.0,3.0
1582,19.49897,t,511.0,511.0,394.0,77.0,358.0,270.0,400.0,511.0,9.46,-2.55,-0.24,13.06,3.44,-19.37,0.64,-0.44,-0.27,-0.27,0.69,-0.35,-0.66,0.0,1.0,3.0
1583,19.515974,t,511.0,511.0,389.0,76.0,357.0,264.0,393.0,511.0,9.47,-2.52,-0.22,19.06,5.87,-16.81,0.64,-0.44,-0.27,-0.27,0.7,0.2,-0.6,0.0,1.0,3.0
1584,19.528976,t,511.0,511.0,390.0,78.0,366.0,274.0,406.0,511.0,9.47,-2.5,-0.2,23.25,7.0,-15.31,0.65,-0.43,-0.27,-0.27,0.59,1.23,-0.81,0.0,1.0,3.0
1585,19.543969,t,511.0,511.0,394.0,70.0,362.0,262.0,392.0,511.0,9.5,-2.4,-0.13,20.37,10.63,-26.87,0.65,-0.43,-0.27,-0.27,0.07,0.64,-1.19,0.0,1.0,3.0
1586,19.558983,t,511.0,511.0,396.0,73.0,365.0,264.0,393.0,511.0,9.52,-2.35,-0.11,17.94,7.0,-30.62,0.65,-0.42,-0.27,-0.27,-0.19,0.35,-1.44,0.0,1.0,3.0
1587,19.573987,t,511.0,511.0,397.0,73.0,366.0,266.0,392.0,511.0,9.53,-2.29,-0.1,15.88,-0.94,-33.5,0.65,-0.42,-0.27,-0.27,-0.6,0.0,-1.53,0.0,1.0,3.0
1588,19.588992,t,511.0,511.0,396.0,74.0,362.0,266.0,392.0,511.0,9.55,-2.18,-0.12,10.69,-7.25,-33.69,0.65,-0.42,-0.28,-0.28,0.26,0.32,-1.43,0.0,1.0,3.0
1589,19.604103,t,511.0,511.0,397.0,75.0,362.0,267.0,390.0,511.0,9.57,-2.13,-0.13,5.69,-5.37,-32.19,0.65,-0.41,-0.28,-0.28,0.68,0.25,-1.29,0.0,1.0,3.0
1590,19.619199,t,511.0,511.0,395.0,73.0,358.0,268.0,389.0,511.0,9.59,-2.03,-0.13,-7.69,-1.0,-29.19,0.64,-0.41,-0.28,-0.28,-0.42,-0.41,-1.32,0.0,1.0,3.0
1591,19.634403,t,511.0,511.0,390.0,74.0,354.0,264.0,385.0,506.0,9.6,-1.98,-0.14,-11.94,-4.25,-23.06,0.64,-0.41,-0.28,-0.28,-0.39,-0.34,-1.28,0.0,1.0,3.0
1592,19.649573,t,511.0,511.0,386.0,73.0,349.0,259.0,382.0,485.0,9.61,-1.91,-0.16,-17.37,-3.25,-20.62,0.64,-0.41,-0.29,-0.29,-0.62,-0.25,-1.07,0.0,1.0,3.0
1593,19.664636,t,511.0,511.0,383.0,74.0,352.0,268.0,398.0,498.0,9.62,-1.88,-0.17,-19.87,-1.69,-19.25,0.64,-0.41,-0.29,-0.29,-0.55,-0.41,-1.1,0.0,1.0,3.0
1594,19.679718,t,511.0,511.0,379.0,74.0,347.0,258.0,380.0,471.0,9.63,-1.81,-0.19,-19.12,0.44,-19.0,0.64,-0.41,-0.29,-0.29,-0.69,-0.9,-0.92,0.0,1.0,3.0
1595,19.69478,t,511.0,511.0,371.0,74.0,347.0,252.0,376.0,472.0,9.64,-1.75,-0.19,-13.56,3.31,-19.06,0.63,-0.41,-0.3,-0.3,-1.11,-1.92,-0.83,0.0,1.0,3.0
1596,19.709843,t,511.0,511.0,371.0,74.0,348.0,254.0,375.0,477.0,9.65,-1.72,-0.18,-7.69,5.31,-17.94,0.63,-0.41,-0.3,-0.3,-1.13,-2.19,-0.91,0.0,1.0,3.0
1597,19.724877,t,511.0,511.0,374.0,74.0,349.0,260.0,370.0,479.0,9.65,-1.69,-0.17,-0.25,6.69,-16.19,0.63,-0.41,-0.3,-0.3,-1.09,-2.77,-1.03,0.0,1.0,3.0
1598,19.738934,t,511.0,511.0,374.0,69.0,350.0,262.0,370.0,482.0,9.66,-1.67,-0.15,19.12,8.13,-11.94,0.64,-0.41,-0.3,-0.3,-1.18,-3.04,-1.17,0.0,1.0,3.0
1599,19.754985,t,511.0,511.0,379.0,69.0,366.0,269.0,370.0,488.0,9.66,-1.63,-0.08,38.38,10.44,-3.44,0.64,-0.4,-0.3,-0.3,-2.07,-3.66,-0.82,0.0,1.0,3.0
1600,19.769138,t,511.0,511.0,377.0,69.0,368.0,269.0,368.0,490.0,9.66,-1.64,-0.05,45.19,11.31,2.69,0.64,-0.4,-0.29,-0.29,-2.53,-3.62,-0.73,0.0,1.0,3.0
1601,19.784217,t,511.0,511.0,374.0,70.0,386.0,270.0,363.0,490.0,9.66,-1.65,-0.02,48.63,11.44,9.5,0.64,-0.4,-0.29,-0.29,-2.81,-3.38,-0.69,0.0,1.0,3.0
1602,19.79931,t,511.0,511.0,365.0,73.0,405.0,269.0,352.0,504.0,9.65,-1.72,0.04,38.06,15.0,22.87,0.65,-0.39,-0.28,-0.28,-3.48,-2.64,-0.13,0.0,1.0,3.0
1603,19.815632,t,511.0,511.0,361.0,74.0,410.0,267.0,350.0,507.0,9.63,-1.83,0.11,25.44,13.5,36.94,0.65,-0.39,-0.28,-0.28,-3.69,-2.38,0.18,0.0,1.0,3.0
1604,19.829666,t,511.0,511.0,366.0,73.0,426.0,269.0,352.0,504.0,9.61,-1.9,0.13,25.94,6.75,42.44,0.66,-0.39,-0.28,-0.28,-3.18,-2.1,0.22,0.0,1.0,3.0
1605,19.843667,t,511.0,511.0,367.0,70.0,434.0,265.0,350.0,500.0,9.58,-2.06,0.15,27.75,0.62,50.69,0.66,-0.4,-0.28,-0.28,-1.5,-0.28,-1.11,0.0,1.0,3.0
1606,19.859699,t,511.0,511.0,355.0,69.0,432.0,263.0,363.0,480.0,9.56,-2.14,0.16,25.25,0.5,52.69,0.66,-0.41,-0.27,-0.27,-1.45,0.35,-1.07,0.0,1.0,3.0
1607,19.874762,t,511.0,511.0,353.0,70.0,418.0,262.0,360.0,458.0,9.54,-2.23,0.17,5.37,5.37,49.44,0.66,-0.41,-0.27,-0.27,-2.12,1.55,-1.43,0.0,1.0,3.0
1608,19.888794,t,486.0,511.0,342.0,70.0,412.0,266.0,374.0,463.0,9.5,-2.39,0.19,0.19,5.19,48.56,0.66,-0.41,-0.27,-0.27,-2.25,1.7,-1.16,0.0,1.0,3.0
1609,19.903884,t,490.0,511.0,330.0,69.0,398.0,254.0,354.0,435.0,9.48,-2.47,0.19,-5.5,4.44,46.81,0.66,-0.42,-0.26,-0.26,-2.18,0.91,-1.84,0.0,1.0,3.0
1610,19.918916,t,491.0,511.0,289.0,72.0,396.0,246.0,342.0,425.0,9.44,-2.62,0.2,-19.5,5.94,44.13,0.67,-0.42,-0.26,-0.26,-2.1,0.67,-1.78,0.0,1.0,3.0
1611,19.934005,t,496.0,511.0,275.0,76.0,401.0,240.0,332.0,426.0,9.42,-2.68,0.19,-28.25,5.31,40.75,0.67,-0.43,-0.26,-0.26,-1.74,-0.54,-2.35,0.0,1.0,3.0
1612,19.949077,t,499.0,511.0,266.0,77.0,398.0,242.0,319.0,427.0,9.41,-2.75,0.18,-24.75,1.75,39.0,0.67,-0.43,-0.26,-0.26,-0.81,-1.4,-1.65,0.0,1.0,3.0
1613,19.964246,t,507.0,511.0,246.0,78.0,407.0,243.0,317.0,423.0,9.35,-2.95,0.17,-17.06,7.62,42.25,0.67,-0.44,-0.26,-0.26,-0.5,-2.67,-1.54,0.0,1.0,3.0
1614,19.979659,t,511.0,511.0,230.0,77.0,420.0,246.0,308.0,421.0,9.32,-3.02,0.18,-14.75,10.13,47.31,0.67,-0.44,-0.25,-0.25,-0.25,-3.66,-1.83,0.0,1.0,3.0
1615,19.994664,t,511.0,511.0,205.0,77.0,426.0,248.0,306.0,417.0,9.29,-3.11,0.21,-8.25,17.0,55.25,0.67,-0.44,-0.25,-0.25,-0.3,-3.59,-1.06,0.0,1.0,3.0
1616,20.009667,t,511.0,511.0,190.0,77.0,434.0,251.0,296.0,416.0,9.25,-3.22,0.25,-2.44,28.62,65.0,0.68,-0.45,-0.24,-0.24,1.68,-6.79,-0.12,0.0,1.0,3.0
1617,20.0247,t,511.0,511.0,152.0,76.0,422.0,237.0,267.0,419.0,9.08,-3.66,0.39,-10.19,28.19,110.25,0.68,-0.46,-0.24,-0.24,3.01,-6.55,0.39,0.0,1.0,3.0
1618,20.039733,t,511.0,511.0,140.0,75.0,414.0,232.0,255.0,411.0,9.0,-3.86,0.42,-4.69,23.06,132.62,0.68,-0.46,-0.23,-0.23,4.4,-5.73,0.28,0.0,1.0,3.0
1619,20.054768,t,504.0,494.0,133.0,76.0,394.0,227.0,245.0,392.0,8.89,-4.1,0.45,0.94,17.75,154.25,0.69,-0.47,-0.22,-0.22,6.23,-4.95,0.11,0.0,1.0,3.0
1620,20.068782,t,470.0,462.0,131.0,77.0,366.0,225.0,232.0,360.0,8.76,-4.36,0.47,17.0,-4.62,203.31,0.7,-0.49,-0.19,-0.19,8.03,0.23,0.16,0.0,1.0,3.0
1621,20.084874,t,362.0,394.0,146.0,78.0,314.0,207.0,218.0,302.0,8.27,-5.24,0.51,22.56,-5.12,206.87,0.7,-0.5,-0.18,-0.18,7.78,2.46,0.1,0.0,1.0,3.0
1622,20.099937,t,344.0,388.0,148.0,78.0,300.0,203.0,223.0,288.0,8.08,-5.52,0.52,19.31,-1.5,200.94,0.71,-0.51,-0.16,-0.16,5.85,4.41,0.5,0.0,1.0,3.0
1623,20.113967,t,334.0,364.0,151.0,75.0,286.0,201.0,236.0,285.0,7.89,-5.78,0.52,3.12,-2.06,190.06,0.71,-0.51,-0.15,-0.15,5.41,4.45,0.44,0.0,1.0,3.0
1624,20.128044,t,319.0,319.0,138.0,68.0,276.0,211.0,254.0,285.0,7.55,-6.23,0.46,-39.13,-11.88,134.19,0.71,-0.54,-0.12,-0.12,3.68,2.83,-1.13,0.0,1.0,3.0
1625,20.145048,t,334.0,314.0,135.0,69.0,292.0,218.0,259.0,299.0,7.28,-6.55,0.33,-40.63,-19.12,108.56,0.71,-0.54,-0.12,-0.12,2.96,1.7,0.37,0.0,1.0,3.0
1626,20.159079,t,358.0,306.0,125.0,70.0,297.0,222.0,263.0,314.0,7.19,-6.66,0.24,-42.31,-36.13,86.25,0.71,-0.55,-0.11,-0.11,3.3,0.6,-1.16,0.0,1.0,3.0
1627,20.174224,t,373.0,297.0,121.0,68.0,304.0,229.0,274.0,322.0,7.11,-6.74,0.17,-21.62,-37.88,66.81,0.71,-0.55,-0.11,-0.11,3.44,-0.04,0.65,0.0,1.0,3.0
1628,20.189323,t,378.0,273.0,130.0,69.0,314.0,232.0,266.0,328.0,7.02,-6.84,0.1,20.25,-35.25,32.19,0.7,-0.55,-0.09,-0.09,2.64,0.83,1.57,0.0,1.0,3.0
1629,20.20344,t,378.0,272.0,132.0,69.0,316.0,227.0,252.0,327.0,7.0,-6.86,0.11,52.31,-23.94,0.81,0.71,-0.55,-0.09,-0.09,2.25,3.83,1.97,0.0,1.0,3.0
1630,20.218473,t,374.0,274.0,134.0,68.0,309.0,226.0,246.0,331.0,7.02,-6.84,0.2,59.19,-11.19,-13.75,0.71,-0.55,-0.09,-0.09,1.87,4.51,1.63,0.0,1.0,3.0
1631,20.234565,t,352.0,278.0,126.0,69.0,298.0,225.0,226.0,302.0,7.1,-6.75,0.36,66.12,9.31,-41.94,0.71,-0.54,-0.09,-0.09,1.34,4.93,1.23,0.0,1.0,3.0
1632,20.248648,t,352.0,292.0,120.0,69.0,294.0,218.0,223.0,300.0,7.16,-6.67,0.46,72.12,16.69,-53.63,0.72,-0.53,-0.09,-0.09,-0.11,5.59,1.48,0.0,1.0,3.0
1633,20.264741,t,353.0,311.0,113.0,69.0,294.0,218.0,220.0,300.0,7.23,-6.59,0.56,69.5,18.12,-64.19,0.72,-0.52,-0.1,-0.1,-1.01,5.47,-0.29,0.0,1.0,3.0
1634,20.278825,t,350.0,314.0,105.0,68.0,287.0,215.0,217.0,299.0,7.4,-6.38,0.72,43.63,16.75,-82.5,0.73,-0.51,-0.1,-0.1,-1.81,5.32,0.06,0.0,1.0,3.0
1635,20.294316,t,319.0,304.0,106.0,68.0,274.0,205.0,204.0,282.0,7.61,-6.12,0.8,20.75,3.44,-103.0,0.73,-0.5,-0.11,-0.11,-1.87,4.67,0.41,0.0,1.0,3.0
1636,20.309445,t,319.0,291.0,106.0,68.0,262.0,197.0,201.0,276.0,7.73,-5.97,0.8,6.5,-2.0,-114.69,0.72,-0.49,-0.13,-0.13,-1.87,4.33,0.71,0.0,1.0,3.0
1637,20.324563,t,324.0,273.0,107.0,68.0,254.0,191.0,200.0,274.0,7.85,-5.81,0.79,-22.56,-7.37,-125.75,0.72,-0.49,-0.13,-0.13,-1.58,3.66,0.06,0.0,1.0,3.0
1638,20.339642,t,325.0,246.0,106.0,68.0,244.0,187.0,197.0,273.0,8.1,-5.29,0.65,-43.69,-13.56,-127.87,0.71,-0.48,-0.15,-0.15,-1.39,2.37,-0.44,0.0,1.0,3.0
1639,20.354675,t,334.0,230.0,111.0,68.0,240.0,177.0,199.0,272.0,8.34,-5.11,0.58,-46.31,-17.5,-127.81,0.71,-0.48,-0.16,-0.16,-0.99,0.83,-0.36,0.0,1.0,3.0
1640,20.369757,t,338.0,230.0,112.0,72.0,239.0,174.0,201.0,270.0,8.45,-4.93,0.51,-43.75,-19.75,-127.69,0.7,-0.47,-0.18,-0.18,-0.94,-0.09,-0.37,0.0,1.0,3.0
1641,20.384761,t,341.0,242.0,116.0,74.0,236.0,170.0,202.0,270.0,8.56,-4.75,0.46,-37.75,-18.06,-126.44,0.7,-0.47,-0.19,-0.19,-1.23,-1.05,-0.13,0.0,1.0,3.0
1642,20.399764,t,339.0,260.0,118.0,78.0,221.0,173.0,205.0,281.0,8.83,-4.25,0.3,-27.5,-18.81,-107.75,0.69,-0.46,-0.2,-0.2,-0.68,-1.92,-1.1,0.0,1.0,3.0
1643,20.416797,t,342.0,277.0,117.0,79.0,218.0,174.0,208.0,286.0,8.9,-4.09,0.27,-22.12,-14.25,-101.19,0.69,-0.46,-0.21,-0.21,-0.77,-1.84,-0.92,0.0,1.0,3.0
1644,20.429831,t,346.0,294.0,116.0,79.0,218.0,175.0,206.0,290.0,8.97,-3.95,0.24,-17.69,-12.19,-92.94,0.68,-0.46,-0.21,-0.21,-1.74,-1.73,-0.45,0.0,1.0,3.0
1645,20.444861,t,351.0,307.0,116.0,80.0,220.0,183.0,208.0,294.0,9.02,-3.82,0.21,-8.88,-11.44,-85.37,0.68,-0.45,-0.23,-0.23,-2.31,-1.69,0.02,0.0,1.0,3.0
1646,20.459854,t,362.0,338.0,114.0,80.0,225.0,185.0,210.0,299.0,9.16,-3.47,0.17,15.0,-13.81,-66.69,0.68,-0.44,-0.23,-0.23,-2.12,-2.48,-0.28,0.0,1.0,3.0
1647,20.474868,t,369.0,347.0,114.0,80.0,231.0,194.0,215.0,310.0,9.2,-3.38,0.16,23.31,-16.56,-59.88,0.67,-0.44,-0.23,-0.23,-1.79,-2.34,-0.17,0.0,1.0,3.0
1648,20.48893,t,368.0,352.0,107.0,80.0,233.0,195.0,223.0,316.0,9.23,-3.29,0.14,24.25,-18.62,-53.88,0.67,-0.44,-0.23,-0.23,-1.8,-2.25,-0.28,0.0,1.0,3.0
1649,20.503933,t,375.0,360.0,110.0,79.0,234.0,197.0,226.0,319.0,9.28,-3.14,0.1,7.0,-14.25,-47.81,0.67,-0.43,-0.24,-0.24,-2.74,-2.15,-0.58,0.0,1.0,3.0
1650,20.518966,t,386.0,386.0,111.0,77.0,232.0,200.0,242.0,325.0,9.33,-3.0,0.08,7.12,-4.94,-41.38,0.67,-0.43,-0.24,-0.24,-3.95,-2.21,-0.25,0.0,1.0,3.0
1651,20.534957,t,386.0,404.0,115.0,75.0,232.0,202.0,243.0,334.0,9.35,-2.94,0.09,19.12,-0.13,-37.44,0.67,-0.42,-0.24,-0.24,-4.84,-1.72,0.56,0.0,1.0,3.0
1652,20.548971,t,393.0,414.0,124.0,75.0,236.0,203.0,251.0,340.0,9.37,-2.88,0.11,28.56,0.19,-32.44,0.67,-0.42,-0.24,-0.24,-5.14,-1.32,0.38,0.0,1.0,3.0
1653,20.563977,t,390.0,432.0,137.0,74.0,239.0,210.0,257.0,340.0,9.38,-2.84,0.12,38.0,-6.0,-26.75,0.67,-0.42,-0.24,-0.24,-5.19,-0.57,0.3,0.0,1.0,3.0
1654,20.579062,t,426.0,511.0,201.0,76.0,257.0,215.0,291.0,364.0,9.4,-2.78,0.07,45.94,-65.5,-13.13,0.67,-0.41,-0.23,-0.23,3.65,-0.59,-0.26,0.0,1.0,3.0
1655,20.594178,t,449.0,511.0,238.0,79.0,282.0,218.0,314.0,400.0,9.41,-2.73,-0.13,24.31,-84.56,-17.12,0.66,-0.41,-0.23,-0.23,6.8,-2.55,-1.36,0.0,1.0,3.0
1656,20.60921,t,500.0,511.0,287.0,79.0,319.0,224.0,334.0,421.0,9.42,-2.69,-0.26,21.94,-86.81,-24.12,0.66,-0.41,-0.22,-0.22,7.91,-3.87,-2.73,0.0,1.0,3.0
1657,20.62424,t,511.0,511.0,325.0,75.0,351.0,227.0,326.0,443.0,9.42,-2.66,-0.43,70.06,-62.88,-1.12,0.66,-0.41,-0.21,-0.21,2.07,-3.19,3.64,0.0,1.0,3.0
1658,20.639425,t,511.0,511.0,331.0,76.0,338.0,231.0,322.0,451.0,9.4,-2.72,-0.53,31.06,-67.75,37.13,0.65,-0.41,-0.21,-0.21,1.2,-1.32,12.07,0.0,1.0,3.0
1659,20.654524,t,511.0,511.0,360.0,76.0,329.0,228.0,343.0,467.0,9.36,-2.83,-0.62,-26.37,-9.56,96.94,0.65,-0.42,-0.2,-0.2,6.75,2.32,-3.41,0.0,1.0,3.0
1660,20.668943,t,511.0,511.0,384.0,76.0,337.0,230.0,370.0,456.0,9.26,-3.15,-0.64,-0.62,-6.81,96.19,0.65,-0.43,-0.19,-0.19,7.94,-1.17,-0.01,0.0,1.0,3.0
1661,20.683987,t,511.0,511.0,369.0,70.0,324.0,227.0,361.0,452.0,9.16,-3.43,-0.68,-41.13,6.25,81.06,0.65,-0.44,-0.19,-0.19,5.54,-0.96,-0.66,0.0,1.0,3.0
1662,20.69913,t,495.0,511.0,344.0,72.0,306.0,222.0,349.0,440.0,9.11,-3.54,-0.66,-38.31,30.75,77.06,0.66,-0.44,-0.19,-0.19,4.65,3.07,-2.11,0.0,1.0,3.0
1663,20.715255,t,489.0,511.0,313.0,77.0,293.0,218.0,340.0,409.0,9.07,-3.66,-0.6,-29.94,48.31,79.62,0.66,-0.45,-0.19,-0.19,2.87,6.36,-2.08,0.0,1.0,3.0
1664,20.729327,t,471.0,511.0,316.0,76.0,272.0,212.0,336.0,378.0,8.99,-3.87,-0.52,-19.75,8.69,19.44,0.66,-0.46,-0.19,-0.19,2.65,4.58,-2.46,0.0,1.0,3.0
1665,20.744494,t,465.0,511.0,319.0,75.0,275.0,218.0,335.0,378.0,8.99,-3.86,-0.54,-8.88,-11.69,-8.56,0.66,-0.46,-0.19,-0.19,4.36,3.68,-2.42,0.0,1.0,3.0
1666,20.759579,t,469.0,511.0,318.0,75.0,288.0,221.0,336.0,390.0,9.01,-3.81,-0.57,-2.0,-20.62,-31.0,0.66,-0.46,-0.19,-0.19,5.53,2.69,-2.39,0.0,1.0,3.0
1667,20.774639,t,482.0,511.0,307.0,76.0,308.0,219.0,332.0,410.0,9.04,-3.74,-0.6,-0.81,-18.94,-46.06,0.66,-0.45,-0.19,-0.19,5.77,-0.28,-2.06,0.0,1.0,3.0
1668,20.789701,t,511.0,511.0,314.0,78.0,353.0,229.0,330.0,434.0,9.15,-3.46,-0.62,13.25,1.25,-60.5,0.65,-0.45,-0.2,-0.2,4.18,-1.32,-1.58,0.0,1.0,3.0
1669,20.804704,t,511.0,511.0,319.0,78.0,357.0,231.0,328.0,430.0,9.18,-3.37,-0.6,24.19,4.87,-59.81,0.65,-0.44,-0.2,-0.2,2.62,-2.5,-0.95,0.0,1.0,3.0
1670,20.819733,t,511.0,511.0,331.0,77.0,366.0,238.0,331.0,434.0,9.21,-3.29,-0.57,38.25,5.56,-56.5,0.66,-0.43,-0.2,-0.2,1.73,-2.42,-0.15,0.0,1.0,3.0
1671,20.835754,t,510.0,511.0,337.0,76.0,356.0,237.0,344.0,432.0,9.27,-3.14,-0.49,60.81,5.37,-48.75,0.66,-0.42,-0.2,-0.2,-0.13,1.66,0.4,0.0,1.0,3.0
1672,20.848798,t,495.0,511.0,342.0,69.0,338.0,230.0,339.0,414.0,9.3,-3.07,-0.44,58.44,12.44,-50.81,0.66,-0.41,-0.2,-0.2,-0.46,1.83,0.33,0.0,1.0,3.0
1673,20.864831,t,486.0,511.0,336.0,69.0,340.0,232.0,338.0,407.0,9.35,-2.9,-0.35,49.13,13.19,-54.63,0.66,-0.41,-0.2,-0.2,-0.63,1.57,0.18,0.0,1.0,3.0
1674,20.87886,t,477.0,511.0,334.0,70.0,347.0,240.0,352.0,428.0,9.38,-2.81,-0.31,38.25,9.69,-58.94,0.66,-0.4,-0.21,-0.21,-0.71,-0.21,-0.52,0.0,1.0,3.0
1675,20.894892,t,487.0,511.0,342.0,68.0,340.0,238.0,345.0,419.0,9.44,-2.62,-0.25,23.81,10.13,-58.81,0.67,-0.39,-0.21,-0.21,-1.14,-0.65,-0.77,0.0,1.0,3.0
1676,20.908925,t,509.0,511.0,344.0,68.0,349.0,238.0,346.0,429.0,9.47,-2.53,-0.23,21.06,9.25,-57.44,0.67,-0.38,-0.22,-0.22,-2.54,-1.87,-1.11,0.0,1.0,3.0
1677,20.923955,t,511.0,511.0,344.0,70.0,353.0,240.0,342.0,435.0,9.51,-2.36,-0.19,24.06,5.87,-52.44,0.67,-0.38,-0.22,-0.22,-2.89,-2.5,-0.96,0.0,1.0,3.0
1678,20.93896,t,511.0,511.0,346.0,71.0,365.0,244.0,347.0,444.0,9.55,-2.21,-0.15,35.69,3.0,-40.94,0.67,-0.37,-0.22,-0.22,-3.21,-3.38,-0.55,0.0,1.0,3.0
1679,20.953989,t,511.0,511.0,349.0,72.0,370.0,246.0,350.0,450.0,9.56,-2.16,-0.13,40.75,4.37,-34.0,0.67,-0.37,-0.22,-0.22,-3.37,-3.72,-0.9,0.0,1.0,3.0
1680,20.968985,t,511.0,511.0,351.0,71.0,378.0,246.0,354.0,447.0,9.57,-2.12,-0.1,42.0,5.75,-19.37,0.67,-0.36,-0.22,-0.22,-3.4,-3.53,-0.89,0.0,1.0,3.0
1681,20.984068,t,511.0,511.0,354.0,72.0,386.0,246.0,352.0,449.0,9.58,-2.07,-0.05,37.44,7.5,-11.5,0.67,-0.36,-0.22,-0.22,-3.63,-2.61,-0.6,0.0,1.0,3.0
1682,20.999112,t,511.0,511.0,356.0,73.0,393.0,247.0,356.0,445.0,9.58,-2.06,-0.02,23.19,13.0,2.12,0.67,-0.35,-0.21,-0.21,-3.84,-1.26,-0.53,0.0,1.0,3.0
1683,21.015126,t,511.0,511.0,361.0,71.0,408.0,254.0,357.0,443.0,9.58,-2.07,0.03,16.56,16.75,7.44,0.68,-0.35,-0.21,-0.21,-3.89,-0.94,-1.15,0.0,1.0,3.0
1684,21.029183,t,511.0,511.0,352.0,69.0,402.0,246.0,348.0,439.0,9.57,-2.09,0.07,10.19,20.94,11.63,0.68,-0.35,-0.21,-0.21,-4.2,-1.29,-0.94,0.0,1.0,3.0
1685,21.044331,t,497.0,511.0,344.0,71.0,420.0,253.0,354.0,454.0,9.57,-2.12,0.11,1.19,22.81,15.0,0.68,-0.35,-0.21,-0.21,-4.07,-1.56,-1.2,0.0,1.0,3.0
1686,21.059478,t,498.0,511.0,319.0,76.0,397.0,242.0,334.0,428.0,9.54,-2.24,0.18,-11.44,14.19,28.62,0.68,-0.36,-0.21,-0.21,-3.19,-0.42,-1.39,0.0,1.0,3.0
1687,21.074596,t,490.0,511.0,301.0,80.0,391.0,241.0,331.0,423.0,9.53,-2.29,0.2,-19.31,14.38,31.37,0.68,-0.36,-0.21,-0.21,-2.69,-0.31,-1.63,0.0,1.0,3.0
1688,21.089696,t,486.0,511.0,280.0,79.0,392.0,239.0,333.0,425.0,9.51,-2.35,0.22,-22.62,16.06,32.88,0.68,-0.36,-0.21,-0.21,-2.38,-0.5,-1.85,0.0,1.0,3.0
1689,21.104699,t,488.0,511.0,270.0,79.0,395.0,237.0,312.0,412.0,9.46,-2.54,0.27,-29.87,18.25,42.81,0.69,-0.37,-0.21,-0.21,-1.59,-2.94,-1.75,0.0,1.0,3.0
1690,21.11976,t,501.0,511.0,242.0,78.0,410.0,238.0,301.0,414.0,9.44,-2.62,0.29,-23.75,19.31,48.94,0.69,-0.37,-0.21,-0.21,-1.42,-2.34,-0.81,0.0,1.0,3.0
1691,21.134818,t,505.0,511.0,225.0,77.0,413.0,240.0,294.0,407.0,9.41,-2.71,0.31,-24.31,21.81,55.81,0.69,-0.38,-0.21,-0.21,-0.44,-2.31,-0.93,0.0,1.0,3.0
1692,21.14888,t,495.0,511.0,205.0,77.0,414.0,242.0,291.0,418.0,9.38,-2.81,0.34,-25.0,23.56,62.81,0.69,-0.39,-0.21,-0.21,0.53,-1.76,0.03,0.0,1.0,3.0
1693,21.164884,t,487.0,511.0,182.0,77.0,397.0,231.0,268.0,385.0,9.31,-3.04,0.39,-23.56,22.87,72.44,0.69,-0.4,-0.21,-0.21,1.2,-1.96,-0.13,0.0,1.0,3.0
1694,21.178912,t,450.0,442.0,146.0,77.0,391.0,215.0,246.0,345.0,9.22,-3.3,0.4,-35.31,9.81,82.06,0.69,-0.41,-0.21,-0.21,3.64,-3.61,0.8,0.0,1.0,3.0
1695,21.193945,t,432.0,416.0,140.0,79.0,376.0,209.0,234.0,341.0,9.17,-3.45,0.38,-39.75,0.75,91.94,0.69,-0.42,-0.2,-0.2,5.19,-4.47,0.86,0.0,1.0,3.0
1696,21.209004,t,423.0,397.0,137.0,77.0,339.0,202.0,224.0,330.0,9.1,-3.62,0.35,-39.81,-4.12,107.69,0.69,-0.43,-0.19,-0.19,6.68,-4.85,1.06,0.0,1.0,3.0
1697,21.224068,t,377.0,363.0,140.0,78.0,317.0,184.0,219.0,312.0,8.91,-4.06,0.3,-18.0,-5.25,151.87,0.69,-0.44,-0.19,-0.19,7.86,-3.21,0.05,0.0,1.0,3.0
1698,21.239125,t,333.0,323.0,138.0,78.0,280.0,174.0,218.0,291.0,8.66,-4.58,0.31,4.44,8.63,173.0,0.7,-0.46,-0.17,-0.17,8.13,0.05,-0.18,0.0,1.0,3.0
1699,21.253239,t,319.0,308.0,136.0,75.0,272.0,175.0,217.0,274.0,8.52,-4.83,0.35,10.0,25.94,174.06,0.71,-0.48,-0.15,-0.15,6.97,2.55,0.25,0.0,1.0,3.0
1700,21.269417,t,315.0,293.0,136.0,73.0,262.0,182.0,221.0,268.0,8.21,-5.33,0.51,17.12,47.0,170.56,0.71,-0.48,-0.14,-0.14,5.72,3.82,0.37,0.0,1.0,3.0
1701,21.28461,t,313.0,286.0,130.0,68.0,258.0,185.0,222.0,269.0,8.06,-5.55,0.59,15.13,46.06,159.62,0.71,-0.49,-0.14,-0.14,4.66,5.41,-0.37,0.0,1.0,3.0
1702,21.299685,t,314.0,282.0,124.0,69.0,262.0,191.0,230.0,273.0,7.91,-5.74,0.65,7.06,42.56,142.12,0.72,-0.5,-0.13,-0.13,3.89,5.5,0.36,0.0,1.0,3.0
1703,21.314689,t,328.0,310.0,118.0,69.0,286.0,217.0,255.0,294.0,7.71,-6.02,0.69,-5.5,-18.31,60.19,0.72,-0.51,-0.12,-0.12,0.86,0.92,-0.52,0.0,1.0,3.0
1704,21.329692,t,358.0,337.0,117.0,68.0,284.0,210.0,241.0,295.0,7.64,-6.1,0.66,1.62,-36.38,42.38,0.72,-0.51,-0.11,-0.11,1.9,0.57,0.21,0.0,1.0,3.0
1705,21.343695,t,368.0,341.0,118.0,68.0,290.0,216.0,233.0,307.0,7.58,-6.18,0.58,16.19,-35.69,26.62,0.72,-0.51,-0.11,-0.11,3.06,0.94,0.9,0.0,1.0,3.0
1706,21.358699,t,370.0,326.0,119.0,68.0,295.0,217.0,231.0,307.0,7.57,-6.2,0.58,27.19,-21.94,15.06,0.72,-0.51,-0.11,-0.11,2.53,2.88,1.37,0.0,1.0,3.0
1707,21.374702,t,346.0,274.0,124.0,68.0,287.0,211.0,223.0,298.0,7.57,-6.19,0.64,30.87,2.19,-7.44,0.72,-0.5,-0.11,-0.11,1.12,4.08,0.74,0.0,1.0,3.0
1708,21.388735,t,336.0,264.0,127.0,68.0,284.0,204.0,219.0,286.0,7.59,-6.16,0.68,33.94,12.56,-36.19,0.73,-0.5,-0.11,-0.11,-0.15,5.45,0.27,0.0,1.0,3.0
1709,21.404766,t,323.0,262.0,124.0,68.0,276.0,198.0,218.0,278.0,7.68,-6.04,0.79,34.94,13.5,-48.88,0.73,-0.49,-0.11,-0.11,-0.94,6.16,0.41,0.0,1.0,3.0
1710,21.419798,t,319.0,291.0,106.0,68.0,260.0,191.0,210.0,276.0,7.81,-5.86,0.85,7.81,7.69,-69.06,0.73,-0.49,-0.12,-0.12,-2.04,7.11,-0.55,0.0,1.0,3.0
1711,21.43483,t,318.0,315.0,111.0,68.0,257.0,189.0,208.0,274.0,7.88,-5.76,0.85,-9.5,4.12,-79.25,0.73,-0.48,-0.12,-0.12,-2.38,6.66,-0.73,0.0,1.0,3.0
1712,21.448922,t,331.0,291.0,110.0,68.0,253.0,183.0,204.0,274.0,7.97,-5.64,0.82,-23.0,-1.5,-89.31,0.72,-0.48,-0.14,-0.14,-2.54,6.56,-0.29,0.0,1.0,3.0
1713,21.463954,t,319.0,267.0,113.0,68.0,244.0,194.0,205.0,274.0,8.17,-5.36,0.73,-40.63,-10.63,-116.62,0.72,-0.48,-0.15,-0.15,-1.84,2.78,0.99,0.0,1.0,3.0
1714,21.478985,t,308.0,242.0,115.0,68.0,236.0,164.0,194.0,260.0,8.39,-5.03,0.63,-34.13,-12.0,-123.0,0.71,-0.47,-0.16,-0.16,-1.78,2.39,1.06,0.0,1.0,3.0
1715,21.494094,t,309.0,241.0,118.0,72.0,232.0,162.0,194.0,259.0,8.5,-4.85,0.58,-34.69,-16.0,-125.62,0.71,-0.47,-0.17,-0.17,-1.59,1.98,0.81,0.0,1.0,3.0
1716,21.509197,t,311.0,232.0,118.0,72.0,230.0,160.0,195.0,262.0,8.6,-4.66,0.52,-35.19,-19.56,-128.44,0.7,-0.46,-0.19,-0.19,-1.7,0.65,0.5,0.0,1.0,3.0
1717,21.524388,t,292.0,280.0,118.0,77.0,226.0,162.0,203.0,259.0,8.9,-4.08,0.38,-31.37,-7.69,-129.87,0.69,-0.46,-0.2,-0.2,-2.41,-1.28,0.07,0.0,1.0,3.0
1718,21.539446,t,305.0,298.0,112.0,76.0,230.0,165.0,206.0,270.0,8.99,-3.89,0.35,-31.06,-3.94,-124.44,0.69,-0.45,-0.21,-0.21,-2.12,-2.84,-0.12,0.0,1.0,3.0
1719,21.55459,t,328.0,308.0,114.0,76.0,229.0,170.0,212.0,285.0,9.07,-3.7,0.34,-27.19,0.69,-121.44,0.68,-0.45,-0.22,-0.22,-2.59,-3.21,-0.73,0.0,1.0,3.0
1720,21.569618,t,355.0,313.0,112.0,78.0,229.0,184.0,225.0,296.0,9.14,-3.53,0.33,-17.75,2.37,-113.06,0.68,-0.44,-0.24,-0.24,-2.97,-3.68,-1.26,0.0,1.0,3.0
1721,21.584656,t,407.0,316.0,104.0,79.0,237.0,205.0,243.0,328.0,9.24,-3.24,0.32,22.5,-6.19,-67.75,0.68,-0.43,-0.24,-0.24,-4.27,-4.23,-1.45,0.0,1.0,3.0
1722,21.599689,t,422.0,324.0,104.0,78.0,242.0,209.0,245.0,350.0,9.31,-3.04,0.33,36.94,-9.25,-54.13,0.68,-0.43,-0.24,-0.24,-4.33,-4.01,-1.54,0.0,1.0,3.0
1723,21.614698,t,440.0,328.0,106.0,78.0,248.0,214.0,248.0,358.0,9.33,-2.97,0.34,47.19,-10.5,-42.69,0.68,-0.42,-0.24,-0.24,-4.2,-3.52,-1.47,0.0,1.0,3.0
1724,21.629696,t,453.0,336.0,104.0,78.0,250.0,214.0,248.0,358.0,9.35,-2.91,0.35,49.19,-10.19,-34.13,0.68,-0.41,-0.24,-0.24,-3.91,-1.89,-1.7,0.0,1.0,3.0
1725,21.644757,t,466.0,366.0,106.0,77.0,253.0,217.0,250.0,356.0,9.38,-2.82,0.34,35.94,-20.0,-21.87,0.68,-0.41,-0.24,-0.24,-3.86,-0.91,-1.15,0.0,1.0,3.0
1726,21.659761,t,478.0,371.0,108.0,78.0,254.0,218.0,256.0,355.0,9.4,-2.75,0.3,31.37,-24.56,-20.62,0.68,-0.41,-0.24,-0.24,-3.9,-0.63,-0.7,0.0,1.0,3.0
1727,21.67479,t,468.0,382.0,112.0,76.0,256.0,208.0,262.0,354.0,9.41,-2.72,0.27,33.19,-31.5,-18.69,0.68,-0.4,-0.24,-0.24,-3.78,-0.19,0.17,0.0,1.0,3.0
1728,21.689898,t,472.0,415.0,140.0,76.0,264.0,205.0,291.0,373.0,9.43,-2.68,0.14,41.63,-58.56,-9.81,0.67,-0.4,-0.23,-0.23,-1.3,0.94,2.54,0.0,1.0,3.0
1729,21.704942,t,480.0,434.0,180.0,83.0,277.0,220.0,319.0,416.0,9.43,-2.67,0.01,15.19,-89.19,-5.31,0.67,-0.4,-0.22,-0.22,6.63,-1.58,-0.45,0.0,1.0,3.0
1730,21.71903,t,511.0,511.0,226.0,81.0,310.0,229.0,332.0,435.0,9.44,-2.63,-0.29,18.44,-110.19,-17.44,0.66,-0.4,-0.22,-0.22,9.26,-2.9,-2.58,0.0,1.0,3.0
1731,21.734127,t,511.0,511.0,258.0,80.0,326.0,219.0,319.0,430.0,9.44,-2.61,-0.4,19.75,-72.44,-15.5,0.65,-0.4,-0.21,-0.21,2.16,-4.28,4.07,0.0,1.0,3.0
1732,21.749212,t,511.0,511.0,276.0,78.0,326.0,218.0,313.0,443.0,9.43,-2.61,-0.59,2.06,-48.38,15.44,0.65,-0.4,-0.21,-0.21,1.4,-1.25,8.59,0.0,1.0,3.0
1733,21.764268,t,511.0,511.0,309.0,77.0,328.0,224.0,335.0,456.0,9.4,-2.7,-0.65,-38.13,-5.06,86.56,0.65,-0.41,-0.21,-0.21,3.71,-1.81,-2.35,0.0,1.0,3.0
1734,21.779411,t,511.0,511.0,330.0,75.0,329.0,229.0,350.0,456.0,9.31,-2.99,-0.67,-29.81,14.44,99.75,0.65,-0.42,-0.2,-0.2,4.53,-3.76,-1.0,0.0,1.0,3.0
1735,21.794488,t,511.0,511.0,340.0,75.0,334.0,230.0,352.0,451.0,9.26,-3.14,-0.68,-7.62,-2.37,96.44,0.65,-0.43,-0.2,-0.2,7.63,-5.32,-0.04,0.0,1.0,3.0
1736,21.80959,t,485.0,511.0,306.0,78.0,319.0,234.0,353.0,428.0,9.16,-3.4,-0.69,10.69,3.75,76.37,0.66,-0.44,-0.18,-0.18,6.96,3.89,-2.08,0.0,1.0,3.0
1737,21.824662,t,486.0,511.0,286.0,79.0,310.0,219.0,332.0,396.0,9.13,-3.52,-0.62,14.94,34.88,71.25,0.66,-0.44,-0.18,-0.18,5.05,5.96,-1.69,0.0,1.0,3.0
1738,21.839695,t,482.0,511.0,280.0,81.0,312.0,218.0,327.0,391.0,9.09,-3.62,-0.54,9.44,52.38,63.31,0.67,-0.44,-0.18,-0.18,3.59,3.04,-1.95,0.0,1.0,3.0
1739,21.854699,t,478.0,511.0,284.0,79.0,318.0,229.0,322.0,394.0,9.06,-3.72,-0.38,5.81,18.06,-1.31,0.67,-0.44,-0.18,-0.18,4.34,1.14,-1.12,0.0,1.0,3.0
1740,21.86878,t,480.0,511.0,290.0,79.0,323.0,234.0,323.0,403.0,9.07,-3.7,-0.37,9.81,-0.62,-14.63,0.67,-0.44,-0.18,-0.18,4.89,0.43,-1.45,0.0,1.0,3.0
1741,21.884786,t,484.0,511.0,290.0,77.0,324.0,235.0,323.0,408.0,9.08,-3.66,-0.37,18.31,-5.56,-20.94,0.67,-0.44,-0.18,-0.18,4.15,1.88,-0.7,0.0,1.0,3.0
1742,21.898859,t,482.0,511.0,289.0,78.0,327.0,244.0,335.0,425.0,9.1,-3.62,-0.35,21.62,-0.88,-34.38,0.67,-0.43,-0.18,-0.18,1.95,1.82,-0.54,0.0,1.0,3.0
1743,21.914889,t,484.0,511.0,290.0,76.0,334.0,239.0,322.0,413.0,9.18,-3.43,-0.32,4.5,6.12,-50.31,0.67,-0.42,-0.19,-0.19,1.62,0.76,-0.75,0.0,1.0,3.0
1744,21.928909,t,484.0,511.0,287.0,74.0,348.0,242.0,336.0,433.0,9.21,-3.34,-0.31,-2.12,8.31,-53.75,0.67,-0.42,-0.19,-0.19,1.33,-0.11,-0.6,0.0,1.0,3.0
1745,21.94497,t,482.0,511.0,288.0,75.0,353.0,244.0,336.0,429.0,9.24,-3.25,-0.29,-2.87,10.44,-53.56,0.67,-0.42,-0.2,-0.2,0.89,-0.82,-0.31,0.0,1.0,3.0
1746,21.959088,t,482.0,500.0,287.0,73.0,350.0,231.0,323.0,407.0,9.27,-3.17,-0.28,4.75,13.94,-41.88,0.67,-0.41,-0.2,-0.2,-1.18,-0.97,-0.87,0.0,1.0,3.0
1747,21.97415,t,469.0,504.0,290.0,75.0,353.0,235.0,325.0,404.0,9.34,-2.97,-0.2,10.75,17.44,-38.0,0.67,-0.41,-0.21,-0.21,-1.54,-0.74,-1.05,0.0,1.0,3.0
1748,21.989299,t,466.0,511.0,288.0,73.0,353.0,234.0,319.0,406.0,9.36,-2.92,-0.15,17.06,22.12,-35.38,0.67,-0.4,-0.21,-0.21,-2.19,-0.85,-0.97,0.0,1.0,3.0
1749,22.004444,t,471.0,511.0,284.0,71.0,360.0,238.0,319.0,408.0,9.37,-2.86,-0.1,20.75,25.06,-33.81,0.67,-0.4,-0.21,-0.21,-2.24,-1.34,-1.05,0.0,1.0,3.0
1750,22.019556,t,484.0,511.0,278.0,73.0,377.0,243.0,313.0,406.0,9.4,-2.77,0.01,29.19,32.19,-27.44,0.68,-0.39,-0.21,-0.21,-3.91,-1.65,0.01,0.0,1.0,3.0
1751,22.034629,t,488.0,511.0,277.0,74.0,383.0,247.0,314.0,406.0,9.41,-2.73,0.08,34.44,34.88,-13.81,0.68,-0.39,-0.21,-0.21,-4.36,-1.25,-0.35,0.0,1.0,3.0
1752,22.049643,t,478.0,511.0,275.0,77.0,403.0,251.0,326.0,424.0,9.42,-2.7,0.22,30.37,33.63,-6.75,0.68,-0.38,-0.21,-0.21,-4.98,-0.81,-0.71,0.0,1.0,3.0
1753,22.064649,t,487.0,511.0,270.0,77.0,401.0,246.0,313.0,411.0,9.42,-2.7,0.35,20.94,30.19,1.87,0.69,-0.38,-0.21,-0.21,-5.34,-0.49,-2.22,0.0,1.0,3.0
1754,22.079731,t,496.0,511.0,267.0,81.0,418.0,255.0,304.0,414.0,9.41,-2.7,0.4,13.06,26.44,2.31,0.69,-0.38,-0.21,-0.21,-5.13,-1.08,-2.01,0.0,1.0,3.0
1755,22.094793,t,494.0,511.0,265.0,82.0,438.0,270.0,310.0,426.0,9.41,-2.7,0.43,1.12,19.56,2.12,0.69,-0.38,-0.21,-0.21,-4.56,-1.69,-1.57,0.0,1.0,3.0
1756,22.108842,t,507.0,511.0,259.0,81.0,433.0,254.0,294.0,407.0,9.41,-2.72,0.46,-14.75,11.69,5.19,0.69,-0.38,-0.22,-0.22,-2.67,-2.38,-0.43,0.0,1.0,3.0
1757,22.124884,t,497.0,511.0,254.0,80.0,447.0,244.0,293.0,408.0,9.39,-2.77,0.48,-23.75,15.31,20.56,0.69,-0.38,-0.22,-0.22,-2.46,-2.31,-1.44,0.0,1.0,3.0
1758,22.138885,t,489.0,511.0,240.0,79.0,439.0,241.0,290.0,405.0,9.37,-2.82,0.5,-25.69,21.25,29.75,0.69,-0.39,-0.22,-0.22,-2.76,-1.72,-0.16,0.0,1.0,3.0
1759,22.154889,t,491.0,511.0,228.0,78.0,447.0,244.0,283.0,401.0,9.35,-2.89,0.53,-40.31,26.44,38.13,0.69,-0.4,-0.22,-0.22,-2.8,-2.25,-0.75,0.0,1.0,3.0
1760,22.168892,t,495.0,511.0,204.0,77.0,456.0,244.0,272.0,398.0,9.29,-3.07,0.57,-65.81,37.31,60.81,0.69,-0.4,-0.22,-0.22,-2.29,-4.16,-0.48,0.0,1.0,3.0
1761,22.183895,t,488.0,458.0,146.0,71.0,432.0,238.0,244.0,380.0,9.19,-3.35,0.64,-85.06,52.81,89.44,0.7,-0.42,-0.22,-0.22,-1.65,-4.89,-0.52,0.0,1.0,3.0
1762,22.198899,t,482.0,438.0,130.0,71.0,422.0,238.0,233.0,363.0,9.12,-3.53,0.68,-85.5,53.81,106.44,0.7,-0.43,-0.22,-0.22,-0.04,-5.26,-0.06,0.0,1.0,3.0
1763,22.214902,t,462.0,406.0,126.0,76.0,403.0,242.0,232.0,349.0,9.03,-3.73,0.7,-84.87,51.56,124.06,0.7,-0.45,-0.22,-0.22,5.15,-5.85,0.25,0.0,1.0,3.0
1764,22.230906,t,368.0,347.0,123.0,79.0,342.0,216.0,214.0,308.0,8.71,-4.45,0.65,-51.25,-8.56,162.12,0.7,-0.47,-0.2,-0.2,8.5,-3.66,0.67,0.0,1.0,3.0
1765,22.244909,t,342.0,324.0,122.0,79.0,324.0,206.0,216.0,294.0,8.57,-4.71,0.57,-44.5,-26.25,173.94,0.7,-0.48,-0.19,-0.19,8.66,-0.72,1.33,0.0,1.0,3.0
1766,22.258928,t,317.0,294.0,108.0,77.0,305.0,196.0,215.0,278.0,8.42,-4.99,0.5,-36.13,-28.06,185.75,0.7,-0.49,-0.18,-0.18,8.31,1.09,1.45,0.0,1.0,3.0
1767,22.274034,t,311.0,277.0,118.0,77.0,290.0,197.0,217.0,272.0,8.25,-5.27,0.44,-31.69,-21.69,191.94,0.7,-0.5,-0.17,-0.17,8.01,2.19,1.39,0.0,1.0,3.0
1768,22.289145,t,303.0,271.0,126.0,70.0,284.0,211.0,244.0,285.0,7.91,-5.78,0.32,-43.88,-14.0,176.81,0.7,-0.53,-0.14,-0.14,5.33,2.57,0.01,0.0,1.0,3.0
1769,22.304205,t,313.0,276.0,128.0,68.0,288.0,205.0,248.0,282.0,7.62,-6.16,0.22,-34.63,-10.5,128.0,0.7,-0.53,-0.13,-0.13,4.11,1.56,0.39,0.0,1.0,3.0
1770,22.319294,t,319.0,277.0,126.0,70.0,298.0,209.0,255.0,290.0,7.51,-6.29,0.16,-29.0,-20.75,99.0,0.7,-0.54,-0.13,-0.13,3.11,0.48,0.37,0.0,1.0,3.0
1771,22.334407,t,355.0,270.0,115.0,69.0,319.0,223.0,260.0,313.0,7.38,-6.45,0.06,-7.56,-26.19,49.38,0.7,-0.55,-0.12,-0.12,3.62,-0.9,0.71,0.0,1.0,3.0
1772,22.349731,t,363.0,269.0,114.0,69.0,330.0,223.0,247.0,319.0,7.35,-6.49,0.04,11.69,-25.69,26.44,0.7,-0.55,-0.11,-0.11,3.38,-0.73,1.41,0.0,1.0,3.0
1773,22.36477,t,366.0,266.0,115.0,69.0,332.0,223.0,246.0,319.0,7.34,-6.5,0.07,50.88,-24.56,-0.5,0.7,-0.54,-0.11,-0.11,3.33,1.94,2.74,0.0,1.0,3.0
1774,22.379292,t,368.0,266.0,118.0,68.0,333.0,222.0,239.0,318.0,7.35,-6.48,0.11,59.5,-18.31,-10.69,0.7,-0.54,-0.11,-0.11,2.85,2.57,2.79,0.0,1.0,3.0
1775,22.394379,t,365.0,270.0,113.0,69.0,312.0,216.0,230.0,300.0,7.41,-6.41,0.26,71.87,2.44,-33.31,0.71,-0.53,-0.11,-0.11,1.05,4.79,2.4,0.0,1.0,3.0
1776,22.408401,t,362.0,288.0,113.0,69.0,298.0,215.0,229.0,295.0,7.46,-6.35,0.35,70.25,9.69,-43.13,0.71,-0.52,-0.11,-0.11,-0.14,5.76,1.15,0.0,1.0,3.0
1777,22.424471,t,362.0,302.0,112.0,69.0,291.0,213.0,223.0,294.0,7.58,-6.19,0.5,40.69,14.88,-62.88,0.72,-0.51,-0.11,-0.11,-0.62,5.95,0.09,0.0,1.0,3.0
1778,22.439609,t,367.0,297.0,111.0,69.0,284.0,212.0,219.0,296.0,7.65,-6.09,0.54,25.25,15.81,-73.81,0.72,-0.51,-0.12,-0.12,-1.91,6.73,-0.06,0.0,1.0,3.0
1779,22.454639,t,338.0,269.0,109.0,69.0,271.0,202.0,206.0,285.0,7.84,-5.85,0.58,-0.62,5.87,-97.69,0.72,-0.5,-0.13,-0.13,-1.99,5.58,0.84,0.0,1.0,3.0
1780,22.469642,t,332.0,250.0,107.0,68.0,251.0,187.0,206.0,278.0,7.95,-5.7,0.57,-14.63,0.62,-111.37,0.71,-0.49,-0.14,-0.14,-1.63,4.12,0.69,0.0,1.0,3.0
1781,22.484685,t,336.0,240.0,108.0,69.0,248.0,188.0,207.0,278.0,8.07,-5.53,0.54,-28.81,-0.37,-123.87,0.71,-0.49,-0.15,-0.15,-1.7,3.24,-0.2,0.0,1.0,3.0
1782,22.499728,t,332.0,236.0,109.0,70.0,248.0,194.0,211.0,288.0,8.2,-5.35,0.5,-53.94,-5.94,-136.25,0.7,-0.49,-0.16,-0.16,-2.07,0.32,-0.98,0.0,1.0,3.0
1783,22.514794,t,336.0,235.0,114.0,70.0,238.0,181.0,203.0,268.0,8.56,-4.77,0.31,-56.25,-9.88,-137.75,0.69,-0.48,-0.18,-0.18,-2.55,-0.32,-0.39,0.0,1.0,3.0
1784,22.529825,t,327.0,255.0,117.0,68.0,232.0,178.0,202.0,267.0,8.67,-4.57,0.27,-42.81,-8.5,-136.75,0.69,-0.48,-0.19,-0.19,-2.84,-1.0,0.11,0.0,1.0,3.0
1785,22.544828,t,315.0,268.0,114.0,74.0,226.0,169.0,204.0,266.0,8.77,-4.37,0.23,-29.87,-10.13,-134.81,0.69,-0.48,-0.2,-0.2,-2.82,-1.24,0.66,0.0,1.0,3.0
1786,22.558831,t,306.0,301.0,112.0,78.0,226.0,162.0,210.0,272.0,9.04,-3.78,0.12,-12.38,-14.88,-119.56,0.68,-0.46,-0.23,-0.23,-1.52,-2.76,0.31,0.0,1.0,3.0
1787,22.57486,t,301.0,314.0,106.0,79.0,227.0,159.0,212.0,276.0,9.11,-3.61,0.1,-3.62,-13.13,-109.62,0.67,-0.46,-0.23,-0.23,-0.6,-4.02,-0.16,0.0,1.0,3.0
1788,22.588892,t,302.0,322.0,106.0,78.0,226.0,164.0,213.0,282.0,9.17,-3.45,0.1,15.88,-10.31,-100.37,0.67,-0.45,-0.24,-0.24,-1.65,-4.32,-0.24,0.0,1.0,3.0
1789,22.604937,t,317.0,335.0,109.0,78.0,228.0,171.0,218.0,288.0,9.22,-3.32,0.11,35.0,-3.37,-87.06,0.67,-0.44,-0.24,-0.24,-2.69,-4.29,-0.45,0.0,1.0,3.0
1790,22.618978,t,373.0,342.0,116.0,78.0,232.0,179.0,223.0,314.0,9.32,-3.02,0.23,73.75,3.25,-48.25,0.67,-0.43,-0.24,-0.24,-5.07,-1.94,-1.27,0.0,1.0,3.0
1791,22.635037,t,397.0,358.0,114.0,77.0,239.0,181.0,227.0,319.0,9.34,-2.96,0.26,78.25,-1.12,-37.5,0.68,-0.42,-0.24,-0.24,-4.88,-1.45,-1.22,0.0,1.0,3.0
1792,22.64909,t,420.0,358.0,113.0,77.0,239.0,191.0,230.0,328.0,9.35,-2.91,0.29,75.37,-6.5,-28.5,0.68,-0.42,-0.24,-0.24,-4.54,-0.99,-1.02,0.0,1.0,3.0
1793,22.664178,t,434.0,360.0,114.0,74.0,242.0,196.0,233.0,331.0,9.37,-2.86,0.31,66.81,-12.19,-23.56,0.68,-0.41,-0.23,-0.23,-3.48,-0.42,1.52,0.0,1.0,3.0
1794,22.67937,t,424.0,386.0,116.0,75.0,243.0,191.0,238.0,339.0,9.39,-2.8,0.3,40.0,-23.31,-11.56,0.68,-0.4,-0.23,-0.23,-2.94,-0.01,1.27,0.0,1.0,3.0
1795,22.694499,t,424.0,394.0,121.0,73.0,246.0,182.0,248.0,340.0,9.4,-2.77,0.25,29.31,-27.5,-4.31,0.68,-0.4,-0.23,-0.23,-2.81,1.45,1.47,0.0,1.0,3.0
1796,22.709603,t,417.0,423.0,138.0,74.0,251.0,181.0,266.0,343.0,9.4,-2.77,0.21,30.19,-36.0,4.06,0.68,-0.4,-0.22,-0.22,-1.97,2.21,0.91,0.0,1.0,3.0
1797,22.724628,t,465.0,511.0,224.0,77.0,285.0,191.0,315.0,402.0,9.39,-2.8,0.02,-12.94,-69.87,8.0,0.67,-0.4,-0.22,-0.22,4.05,-2.34,-4.15,0.0,1.0,3.0
1798,22.739656,t,506.0,511.0,257.0,78.0,292.0,215.0,319.0,415.0,9.39,-2.8,-0.12,-33.13,-80.87,0.0,0.66,-0.4,-0.21,-0.21,3.53,0.29,-1.8,0.0,1.0,3.0
1799,22.753945,t,511.0,511.0,280.0,78.0,292.0,218.0,318.0,421.0,9.39,-2.79,-0.35,6.62,-70.12,-0.37,0.66,-0.41,-0.21,-0.21,2.21,3.37,3.73,0.0,1.0,3.0
1800,22.768973,t,511.0,511.0,293.0,78.0,290.0,226.0,306.0,430.0,9.37,-2.82,-0.49,-117.75,-43.25,36.0,0.65,-0.42,-0.21,-0.21,3.1,-2.46,-6.15,0.0,1.0,3.0
1801,22.784023,t,511.0,511.0,343.0,75.0,326.0,232.0,362.0,434.0,9.32,-2.94,-0.68,-102.19,-8.38,52.69,0.65,-0.43,-0.21,-0.21,3.8,-5.4,-7.23,0.0,1.0,3.0
1802,22.799087,t,511.0,511.0,348.0,74.0,341.0,228.0,366.0,444.0,9.29,-3.03,-0.73,-84.0,-4.31,63.63,0.64,-0.44,-0.21,-0.21,5.24,-10.06,-5.28,0.0,1.0,3.0
1803,22.815204,t,511.0,511.0,340.0,73.0,348.0,226.0,343.0,451.0,9.2,-3.26,-0.89,-39.88,-32.63,82.06,0.64,-0.45,-0.21,-0.21,7.83,-5.32,1.29,0.0,1.0,3.0
1804,22.829293,t,491.0,511.0,324.0,79.0,319.0,198.0,336.0,418.0,9.1,-3.54,-0.84,-3.81,36.38,88.44,0.65,-0.46,-0.2,-0.2,5.81,4.46,-2.92,0.0,1.0,3.0
1805,22.844413,t,475.0,511.0,316.0,81.0,304.0,197.0,334.0,403.0,9.06,-3.66,-0.78,3.31,36.44,76.87,0.65,-0.46,-0.2,-0.2,4.99,7.15,-0.9,0.0,1.0,3.0
1806,22.859443,t,468.0,511.0,315.0,80.0,298.0,211.0,341.0,374.0,9.03,-3.75,-0.73,2.56,30.31,56.06,0.65,-0.47,-0.2,-0.2,4.51,5.23,-2.91,0.0,1.0,3.0
1807,22.874476,t,468.0,511.0,322.0,78.0,299.0,216.0,346.0,375.0,9.01,-3.79,-0.67,19.37,34.31,28.69,0.66,-0.46,-0.2,-0.2,4.66,1.8,-1.71,0.0,1.0,3.0
1808,22.88961,t,502.0,511.0,315.0,81.0,343.0,242.0,361.0,420.0,9.06,-3.7,-0.58,34.69,-12.19,-42.88,0.66,-0.46,-0.2,-0.2,6.2,-0.11,-1.8,0.0,1.0,3.0
1809,22.904644,t,511.0,511.0,319.0,78.0,358.0,248.0,360.0,434.0,9.09,-3.62,-0.58,34.31,-13.0,-49.38,0.66,-0.45,-0.2,-0.2,5.87,0.37,-1.28,0.0,1.0,3.0
1810,22.919735,t,511.0,511.0,334.0,78.0,372.0,247.0,353.0,434.0,9.12,-3.55,-0.58,31.31,-9.44,-51.94,0.66,-0.45,-0.2,-0.2,4.49,1.61,-0.4,0.0,1.0,3.0
1811,22.934797,t,511.0,511.0,350.0,76.0,389.0,258.0,370.0,466.0,9.18,-3.38,-0.55,24.81,3.0,-56.31,0.66,-0.43,-0.2,-0.2,2.97,0.91,-0.54,0.0,1.0,3.0
1812,22.9498,t,511.0,511.0,350.0,74.0,385.0,246.0,357.0,438.0,9.25,-3.2,-0.5,20.81,8.63,-58.06,0.66,-0.43,-0.21,-0.21,1.48,0.67,-0.07,0.0,1.0,3.0
1813,22.964834,t,511.0,511.0,351.0,75.0,377.0,246.0,359.0,430.0,9.28,-3.11,-0.47,18.25,12.0,-57.0,0.66,-0.43,-0.21,-0.21,0.94,0.84,0.08,0.0,1.0,3.0
1814,22.978888,t,498.0,511.0,354.0,77.0,366.0,242.0,366.0,418.0,9.34,-2.93,-0.4,11.81,19.81,-56.19,0.66,-0.42,-0.21,-0.21,-0.07,1.15,-0.02,0.0,1.0,3.0
1815,22.994947,t,488.0,511.0,354.0,72.0,368.0,245.0,370.0,417.0,9.37,-2.84,-0.36,7.56,20.94,-55.69,0.66,-0.41,-0.22,-0.22,-0.89,0.75,-0.71,0.0,1.0,3.0
1816,23.009005,t,489.0,511.0,354.0,74.0,367.0,246.0,371.0,424.0,9.43,-2.66,-0.3,1.25,17.5,-54.44,0.66,-0.41,-0.23,-0.23,-1.58,-0.16,-0.97,0.0,1.0,3.0
1817,23.024034,t,489.0,511.0,359.0,68.0,371.0,249.0,368.0,429.0,9.45,-2.58,-0.27,1.12,14.69,-54.69,0.66,-0.41,-0.23,-0.23,-2.28,-1.33,-1.37,0.0,1.0,3.0
1818,23.039193,t,494.0,511.0,360.0,68.0,379.0,249.0,369.0,440.0,9.5,-2.4,-0.23,14.06,9.13,-52.06,0.66,-0.4,-0.23,-0.23,-3.0,-2.49,-1.51,0.0,1.0,3.0
1819,23.054378,t,511.0,511.0,362.0,68.0,386.0,255.0,369.0,443.0,9.52,-2.32,-0.21,23.75,7.5,-48.0,0.66,-0.39,-0.24,-0.24,-3.41,-2.87,-1.31,0.0,1.0,3.0
1820,23.069544,t,511.0,511.0,361.0,70.0,391.0,254.0,370.0,446.0,9.54,-2.26,-0.18,33.63,5.94,-42.44,0.66,-0.39,-0.24,-0.24,-4.76,-2.62,-0.22,0.0,1.0,3.0
1821,23.084628,t,511.0,511.0,360.0,74.0,391.0,254.0,370.0,449.0,9.55,-2.2,-0.16,40.81,6.37,-30.06,0.66,-0.38,-0.24,-0.24,-5.08,-2.59,-0.25,0.0,1.0,3.0
1822,23.099766,t,511.0,511.0,365.0,76.0,410.0,253.0,376.0,457.0,9.58,-2.08,-0.09,23.69,5.37,-17.94,0.66,-0.38,-0.24,-0.24,-5.05,-2.85,-0.11,0.0,1.0,3.0
1823,23.114828,t,511.0,511.0,364.0,78.0,432.0,256.0,376.0,456.0,9.58,-2.06,-0.08,13.94,3.94,-10.88,0.66,-0.37,-0.24,-0.24,-4.75,-2.98,-0.45,0.0,1.0,3.0
1824,23.130891,t,511.0,511.0,361.0,79.0,444.0,254.0,368.0,454.0,9.58,-2.06,-0.07,7.19,3.81,-3.44,0.66,-0.37,-0.24,-0.24,-4.39,-3.05,-0.45,0.0,1.0,3.0
1825,23.144894,t,511.0,511.0,352.0,78.0,437.0,254.0,342.0,463.0,9.58,-2.09,-0.05,-12.56,16.0,20.25,0.66,-0.38,-0.24,-0.24,-3.54,-1.68,-0.88,0.0,1.0,3.0
1826,23.159897,t,511.0,511.0,350.0,78.0,434.0,250.0,334.0,460.0,9.56,-2.16,0.0,-12.81,23.44,26.31,0.67,-0.38,-0.24,-0.24,-3.53,-1.46,-0.77,0.0,1.0,3.0
1827,23.174899,t,511.0,511.0,338.0,78.0,425.0,250.0,327.0,444.0,9.55,-2.21,0.04,-14.0,28.44,31.06,0.67,-0.38,-0.24,-0.24,-3.31,-1.96,-0.64,0.0,1.0,3.0
1828,23.188902,t,506.0,511.0,325.0,79.0,413.0,248.0,318.0,429.0,9.53,-2.27,0.08,-17.44,31.31,34.13,0.67,-0.38,-0.24,-0.24,-2.96,-2.2,-1.07,0.0,1.0,3.0
1829,23.204908,t,494.0,511.0,312.0,82.0,427.0,257.0,330.0,442.0,9.52,-2.33,0.13,-19.87,32.13,41.06,0.68,-0.39,-0.24,-0.24,-2.49,-1.31,-1.83,0.0,1.0,3.0
1830,23.218911,t,479.0,511.0,275.0,82.0,434.0,246.0,325.0,410.0,9.46,-2.54,0.26,-15.75,28.37,44.63,0.68,-0.39,-0.23,-0.23,-2.65,-1.28,-1.81,0.0,1.0,3.0
1831,23.233941,t,486.0,511.0,260.0,81.0,439.0,249.0,314.0,426.0,9.44,-2.62,0.29,-15.56,24.37,47.44,0.68,-0.39,-0.23,-0.23,-2.7,-1.24,-1.56,0.0,1.0,3.0
1832,23.248944,t,491.0,511.0,251.0,80.0,449.0,258.0,300.0,417.0,9.42,-2.7,0.32,-15.63,20.12,49.69,0.68,-0.4,-0.23,-0.23,-2.32,-0.87,-1.59,0.0,1.0,3.0
1833,23.265038,t,490.0,511.0,226.0,78.0,438.0,257.0,294.0,414.0,9.36,-2.87,0.35,-37.0,18.81,54.5,0.68,-0.4,-0.23,-0.23,-1.41,-2.76,-1.52,0.0,1.0,3.0
1834,23.279041,t,489.0,511.0,167.0,77.0,438.0,260.0,267.0,408.0,9.29,-3.09,0.33,-50.19,5.5,73.19,0.68,-0.41,-0.22,-0.22,1.87,-5.0,-0.77,0.0,1.0,3.0
1835,23.294178,t,500.0,471.0,154.0,76.0,417.0,239.0,249.0,372.0,9.25,-3.23,0.31,-50.81,7.87,85.5,0.68,-0.42,-0.22,-0.22,2.73,-5.39,-0.67,0.0,1.0,3.0
1836,23.30924,t,482.0,429.0,132.0,77.0,407.0,232.0,240.0,363.0,9.19,-3.39,0.3,-44.56,8.38,99.31,0.69,-0.43,-0.21,-0.21,4.61,-4.73,1.08,0.0,1.0,3.0
1837,23.324387,t,405.0,360.0,122.0,77.0,345.0,221.0,217.0,331.0,8.95,-4.0,0.23,-37.38,-2.37,140.94,0.69,-0.45,-0.2,-0.2,7.59,-3.16,0.41,0.0,1.0,3.0
1838,23.339525,t,383.0,336.0,124.0,78.0,325.0,209.0,214.0,312.0,8.84,-4.23,0.2,-29.5,-7.69,155.0,0.69,-0.46,-0.19,-0.19,8.15,-2.3,0.14,0.0,1.0,3.0
1839,23.354632,t,340.0,322.0,122.0,78.0,304.0,201.0,215.0,288.0,8.71,-4.48,0.16,-23.69,-11.94,164.31,0.69,-0.47,-0.18,-0.18,9.26,-2.73,-0.91,0.0,1.0,3.0
1840,23.369654,t,310.0,297.0,118.0,80.0,292.0,204.0,222.0,284.0,8.58,-5.0,0.15,0.88,2.56,176.87,0.69,-0.48,-0.16,-0.16,10.1,-0.61,-0.3,0.0,1.0,3.0
1841,23.384718,t,294.0,266.0,114.0,76.0,273.0,191.0,217.0,262.0,8.27,-5.25,0.19,16.0,23.31,175.0,0.7,-0.5,-0.14,-0.14,8.91,1.2,0.43,0.0,1.0,3.0
1842,23.39977,t,292.0,259.0,116.0,69.0,270.0,197.0,220.0,262.0,7.96,-5.7,0.33,19.62,32.81,157.19,0.71,-0.5,-0.13,-0.13,5.2,5.2,-0.69,0.0,1.0,3.0
1843,23.414804,t,294.0,261.0,120.0,69.0,273.0,198.0,233.0,267.0,7.83,-5.89,0.35,6.31,13.0,134.94,0.71,-0.51,-0.12,-0.12,3.59,5.23,-1.57,0.0,1.0,3.0
1844,23.429808,t,306.0,267.0,118.0,69.0,278.0,210.0,239.0,271.0,7.72,-6.02,0.34,-0.62,-5.37,103.56,0.71,-0.51,-0.12,-0.12,3.18,4.3,-1.05,0.0,1.0,3.0
1845,23.44484,t,343.0,302.0,118.0,68.0,302.0,218.0,244.0,294.0,7.55,-6.24,0.22,3.5,-35.63,36.13,0.71,-0.52,-0.1,-0.1,4.42,1.79,1.25,0.0,1.0,3.0
1846,23.458843,t,352.0,296.0,120.0,69.0,310.0,224.0,242.0,309.0,7.53,-6.27,0.2,10.44,-25.56,23.81,0.71,-0.52,-0.1,-0.1,4.17,1.51,1.97,0.0,1.0,3.0
1847,23.474872,t,370.0,294.0,122.0,69.0,316.0,230.0,249.0,316.0,7.51,-6.29,0.2,18.94,-14.75,13.25,0.71,-0.52,-0.1,-0.1,2.34,1.84,1.82,0.0,1.0,3.0
1848,23.489889,t,364.0,290.0,127.0,69.0,334.0,229.0,257.0,319.0,7.51,-6.3,0.22,25.75,-7.25,6.56,0.71,-0.52,-0.09,-0.09,0.6,2.62,1.37,0.0,1.0,3.0
1849,23.503929,t,342.0,273.0,142.0,69.0,319.0,202.0,244.0,302.0,7.56,-6.23,0.34,50.94,-0.06,-30.94,0.71,-0.51,-0.09,-0.09,-0.92,4.62,0.72,0.0,1.0,3.0
1850,23.519059,t,340.0,286.0,136.0,69.0,313.0,190.0,237.0,299.0,7.6,-6.17,0.41,55.94,3.81,-44.5,0.72,-0.5,-0.09,-0.09,-1.33,5.23,1.21,0.0,1.0,3.0
1851,23.534107,t,353.0,286.0,120.0,68.0,308.0,185.0,235.0,312.0,7.66,-6.09,0.47,49.81,7.69,-55.81,0.72,-0.5,-0.1,-0.1,-1.83,5.71,1.29,0.0,1.0,3.0
1852,23.549225,t,361.0,300.0,105.0,68.0,308.0,186.0,228.0,317.0,7.73,-6.0,0.52,32.13,10.63,-66.25,0.72,-0.49,-0.1,-0.1,-1.94,5.62,0.67,0.0,1.0,3.0
1853,23.564346,t,389.0,326.0,103.0,69.0,297.0,191.0,219.0,319.0,7.98,-5.66,0.57,-15.63,11.63,-90.69,0.72,-0.48,-0.12,-0.12,-2.53,4.93,0.82,0.0,1.0,3.0
1854,23.57935,t,383.0,304.0,104.0,68.0,286.0,190.0,212.0,309.0,8.07,-5.53,0.56,-24.75,9.19,-95.25,0.72,-0.48,-0.12,-0.12,-2.25,3.35,1.65,0.0,1.0,3.0
1855,23.594474,t,368.0,279.0,104.0,68.0,278.0,186.0,209.0,303.0,8.16,-5.4,0.54,-26.19,5.25,-97.5,0.71,-0.48,-0.13,-0.13,-2.12,2.89,1.94,0.0,1.0,3.0
1856,23.609529,t,358.0,261.0,105.0,69.0,272.0,184.0,207.0,296.0,8.25,-5.26,0.52,-30.12,1.62,-98.75,0.71,-0.47,-0.15,-0.15,-1.86,2.26,-0.76,0.0,1.0,3.0
1857,23.624547,t,342.0,239.0,110.0,68.0,251.0,184.0,211.0,286.0,8.43,-4.99,0.4,-63.81,-17.75,-98.81,0.7,-0.47,-0.16,-0.16,-2.08,1.88,-0.97,0.0,1.0,3.0
1858,23.639604,t,331.0,245.0,112.0,68.0,245.0,185.0,212.0,270.0,8.6,-4.7,0.24,-59.69,-18.94,-102.0,0.7,-0.47,-0.17,-0.17,-2.38,1.82,-1.0,0.0,1.0,3.0
1859,23.654654,t,325.0,251.0,114.0,70.0,236.0,176.0,214.0,250.0,8.68,-4.54,0.17,-50.56,-22.06,-107.5,0.69,-0.47,-0.18,-0.18,-1.96,1.55,-1.15,0.0,1.0,3.0
1860,23.66966,t,327.0,275.0,111.0,74.0,226.0,166.0,223.0,230.0,8.85,-4.21,0.04,-38.06,-21.06,-111.94,0.68,-0.47,-0.19,-0.19,-1.67,-0.53,0.19,0.0,1.0,3.0
1861,23.684689,t,329.0,299.0,106.0,76.0,229.0,172.0,231.0,232.0,8.93,-4.04,0.0,-35.56,-16.81,-114.06,0.68,-0.46,-0.2,-0.2,-1.72,-1.64,-0.3,0.0,1.0,3.0
1862,23.699748,t,347.0,317.0,104.0,76.0,225.0,168.0,233.0,225.0,9.01,-3.86,-0.03,-21.62,-3.81,-104.44,0.67,-0.46,-0.22,-0.22,-2.08,-4.22,-1.41,0.0,1.0,3.0
1863,23.714768,t,364.0,336.0,102.0,77.0,228.0,182.0,240.0,222.0,9.18,-3.43,-0.05,7.31,1.12,-77.81,0.67,-0.45,-0.22,-0.22,-2.9,-4.72,-0.9,0.0,1.0,3.0
1864,23.728841,t,405.0,360.0,106.0,73.0,232.0,184.0,240.0,230.0,9.22,-3.33,-0.04,20.75,-0.31,-61.88,0.67,-0.44,-0.23,-0.23,-3.28,-4.58,-0.87,0.0,1.0,3.0
1865,23.744873,t,413.0,368.0,106.0,74.0,236.0,188.0,245.0,235.0,9.24,-3.26,-0.02,36.69,-3.62,-48.25,0.67,-0.43,-0.23,-0.23,-3.12,-3.76,-0.59,0.0,1.0,3.0
1866,23.758903,t,422.0,377.0,107.0,73.0,244.0,191.0,250.0,241.0,9.26,-3.2,-0.01,52.19,-16.37,-33.81,0.67,-0.43,-0.23,-0.23,-2.71,-2.13,0.08,0.0,1.0,3.0
1867,23.774923,t,422.0,408.0,109.0,73.0,244.0,195.0,260.0,248.0,9.32,-3.04,-0.04,38.19,-25.19,-32.25,0.67,-0.42,-0.22,-0.22,-2.75,-1.31,-0.38,0.0,1.0,3.0
1868,23.789998,t,427.0,437.0,108.0,72.0,243.0,198.0,263.0,254.0,9.33,-2.99,-0.06,32.81,-23.19,-32.06,0.67,-0.42,-0.22,-0.22,-2.9,-1.12,-0.71,0.0,1.0,3.0
1869,23.804078,t,436.0,457.0,121.0,72.0,249.0,198.0,264.0,272.0,9.35,-2.94,-0.07,35.44,-18.87,-30.5,0.67,-0.41,-0.22,-0.22,-3.36,-0.51,-0.06,0.0,1.0,3.0
1870,23.819137,t,434.0,495.0,134.0,74.0,249.0,195.0,270.0,289.0,9.36,-2.9,-0.08,40.75,-17.94,-27.44,0.67,-0.41,-0.22,-0.22,-4.06,2.07,1.15,0.0,1.0,3.0
1871,23.834311,t,474.0,511.0,200.0,78.0,266.0,198.0,306.0,337.0,9.4,-2.78,-0.19,45.0,-58.44,-24.19,0.67,-0.4,-0.22,-0.22,1.9,0.14,0.29,0.0,1.0,3.0
1872,23.849437,t,511.0,511.0,235.0,81.0,290.0,213.0,326.0,369.0,9.4,-2.74,-0.3,45.25,-81.94,-24.0,0.66,-0.4,-0.21,-0.21,6.05,-1.89,-1.98,0.0,1.0,3.0
1873,23.864577,t,511.0,511.0,282.0,80.0,317.0,226.0,345.0,411.0,9.41,-2.7,-0.41,53.94,-84.69,-28.69,0.66,-0.4,-0.21,-0.21,5.9,-2.03,0.22,0.0,1.0,3.0
1874,23.879635,t,511.0,511.0,328.0,75.0,354.0,242.0,334.0,435.0,9.43,-2.62,-0.57,-19.56,-34.75,-15.38,0.65,-0.4,-0.21,-0.21,2.17,-5.19,3.89,0.0,1.0,3.0
1875,23.89469,t,511.0,511.0,351.0,75.0,356.0,241.0,338.0,440.0,9.41,-2.65,-0.61,9.19,-9.56,51.5,0.65,-0.4,-0.2,-0.2,1.03,-3.01,-2.65,0.0,1.0,3.0
1876,23.908744,t,511.0,511.0,380.0,75.0,351.0,241.0,357.0,446.0,9.36,-2.85,-0.62,2.12,1.94,66.69,0.65,-0.41,-0.2,-0.2,2.18,-1.02,-2.57,0.0,1.0,3.0
1877,23.924776,t,511.0,511.0,417.0,77.0,352.0,234.0,382.0,433.0,9.29,-3.06,-0.65,-4.19,-14.63,61.75,0.66,-0.41,-0.19,-0.19,5.02,1.68,0.05,0.0,1.0,3.0
1878,23.938808,t,511.0,511.0,414.0,71.0,363.0,230.0,391.0,434.0,9.26,-3.13,-0.68,-29.37,-14.44,47.0,0.66,-0.42,-0.19,-0.19,6.49,1.61,-1.32,0.0,1.0,3.0
1879,23.954852,t,511.0,511.0,385.0,69.0,378.0,233.0,376.0,457.0,9.24,-3.18,-0.71,-50.44,4.31,31.81,0.65,-0.43,-0.19,-0.19,6.09,-1.35,-1.07,0.0,1.0,3.0
1880,23.969866,t,511.0,511.0,361.0,69.0,377.0,236.0,360.0,446.0,9.21,-3.27,-0.74,-36.88,6.87,31.44,0.65,-0.43,-0.19,-0.19,6.07,0.06,-0.73,0.0,1.0,3.0
1881,23.983859,t,511.0,511.0,357.0,68.0,373.0,235.0,358.0,428.0,9.19,-3.32,-0.7,7.75,15.06,11.63,0.65,-0.43,-0.19,-0.19,4.37,0.92,-1.52,0.0,1.0,3.0
1882,23.999898,t,511.0,511.0,363.0,71.0,370.0,237.0,368.0,422.0,9.19,-3.33,-0.68,21.12,9.38,2.0,0.66,-0.43,-0.19,-0.19,4.64,0.79,-1.38,0.0,1.0,3.0
1883,24.013927,t,511.0,511.0,358.0,70.0,366.0,240.0,365.0,424.0,9.2,-3.32,-0.64,31.5,10.69,-3.75,0.66,-0.42,-0.19,-0.19,4.81,1.76,-1.86,0.0,1.0,3.0
1884,24.028959,t,511.0,511.0,356.0,71.0,364.0,246.0,366.0,426.0,9.2,-3.31,-0.59,32.69,14.56,-15.44,0.66,-0.42,-0.19,-0.19,3.43,2.45,-1.41,0.0,1.0,3.0
1885,24.043989,t,511.0,511.0,361.0,72.0,375.0,258.0,375.0,446.0,9.25,-3.21,-0.5,14.63,7.5,-31.31,0.66,-0.42,-0.19,-0.19,2.6,2.03,-0.92,0.0,1.0,3.0
1886,24.058992,t,511.0,511.0,359.0,71.0,376.0,257.0,365.0,434.0,9.27,-3.15,-0.49,10.63,5.87,-36.75,0.66,-0.41,-0.19,-0.19,2.3,1.46,-1.03,0.0,1.0,3.0
1887,24.074598,t,511.0,511.0,348.0,70.0,380.0,250.0,358.0,439.0,9.29,-3.09,-0.47,9.75,5.12,-39.31,0.66,-0.41,-0.19,-0.19,1.2,0.99,-0.07,0.0,1.0,3.0
1888,24.089652,t,511.0,511.0,352.0,68.0,379.0,247.0,366.0,427.0,9.33,-2.96,-0.45,17.31,0.5,-43.88,0.66,-0.4,-0.2,-0.2,0.29,0.23,-0.76,0.0,1.0,3.0
1889,24.104671,t,505.0,511.0,355.0,68.0,378.0,245.0,364.0,429.0,9.38,-2.82,-0.43,21.19,-0.75,-47.25,0.66,-0.4,-0.2,-0.2,0.27,-0.25,-0.66,0.0,1.0,3.0
1890,24.119745,t,500.0,511.0,354.0,70.0,375.0,244.0,364.0,431.0,9.4,-2.74,-0.42,26.62,-1.12,-48.88,0.66,-0.39,-0.2,-0.2,0.03,-0.51,-0.33,0.0,1.0,3.0
1891,24.134785,t,508.0,511.0,357.0,71.0,380.0,247.0,367.0,436.0,9.42,-2.66,-0.41,31.25,0.56,-48.38,0.66,-0.39,-0.2,-0.2,-0.16,-0.7,-0.41,0.0,1.0,3.0
1892,24.14886,t,499.0,511.0,361.0,70.0,385.0,262.0,380.0,447.0,9.46,-2.52,-0.35,45.38,14.0,-41.56,0.67,-0.38,-0.2,-0.2,-2.34,-1.3,-0.99,0.0,1.0,3.0
1893,24.164895,t,511.0,511.0,361.0,70.0,378.0,251.0,366.0,436.0,9.5,-2.4,-0.26,49.25,14.5,-37.31,0.67,-0.37,-0.2,-0.2,-3.04,-1.61,-1.07,0.0,1.0,3.0
1894,24.178955,t,511.0,511.0,365.0,71.0,387.0,257.0,366.0,447.0,9.51,-2.35,-0.22,49.63,12.56,-31.94,0.67,-0.37,-0.2,-0.2,-3.85,-1.95,-0.75,0.0,1.0,3.0
1895,24.194958,t,511.0,511.0,370.0,74.0,401.0,267.0,367.0,452.0,9.52,-2.31,-0.19,47.75,9.19,-25.69,0.67,-0.36,-0.2,-0.2,-4.12,-2.13,-0.64,0.0,1.0,3.0
1896,24.209032,t,511.0,511.0,360.0,73.0,407.0,262.0,357.0,451.0,9.54,-2.25,-0.14,38.5,3.31,-14.69,0.67,-0.35,-0.2,-0.2,-4.08,-1.07,-0.1,0.0,1.0,3.0
1897,24.225078,t,511.0,511.0,361.0,73.0,415.0,259.0,357.0,452.0,9.54,-2.24,-0.12,24.12,4.12,-7.12,0.67,-0.35,-0.2,-0.2,-3.86,-1.12,-0.59,0.0,1.0,3.0
1898,24.239225,t,511.0,511.0,361.0,74.0,420.0,260.0,355.0,446.0,9.55,-2.22,-0.09,19.06,3.81,-3.5,0.68,-0.35,-0.2,-0.2,-3.7,-1.06,-0.53,0.0,1.0,3.0
1899,24.254341,t,511.0,511.0,346.0,74.0,429.0,252.0,340.0,437.0,9.54,-2.23,-0.07,6.06,5.37,4.5,0.68,-0.35,-0.2,-0.2,-2.79,-1.85,-0.41,0.0,1.0,3.0
1900,24.269431,t,511.0,511.0,334.0,76.0,414.0,248.0,333.0,436.0,9.54,-2.24,-0.05,2.87,10.31,9.94,0.68,-0.35,-0.2,-0.2,-2.55,-1.76,-0.3,0.0,1.0,3.0
1901,24.284613,t,509.0,511.0,323.0,76.0,415.0,245.0,327.0,434.0,9.53,-2.27,-0.02,-3.56,19.69,15.63,0.68,-0.35,-0.2,-0.2,-2.6,-1.23,-0.66,0.0,1.0,3.0
1902,24.299657,t,501.0,511.0,311.0,78.0,410.0,244.0,319.0,426.0,9.53,-2.3,0.01,-17.12,31.62,25.62,0.68,-0.35,-0.2,-0.2,-3.13,0.13,-0.49,0.0,1.0,3.0
1903,24.314689,t,490.0,511.0,274.0,80.0,414.0,244.0,306.0,395.0,9.49,-2.44,0.14,-37.94,35.19,29.37,0.68,-0.36,-0.2,-0.2,-2.94,-0.59,-1.41,0.0,1.0,3.0
1904,24.329722,t,484.0,511.0,263.0,81.0,424.0,242.0,305.0,390.0,9.48,-2.49,0.18,-37.94,35.19,29.37,0.69,-0.36,-0.2,-0.2,-2.65,-2.56,-1.66,0.0,1.0,3.0
1905,24.344725,t,482.0,511.0,244.0,80.0,439.0,242.0,290.0,390.0,9.44,-2.63,0.26,-33.31,33.0,47.31,0.69,-0.37,-0.2,-0.2,-1.94,-3.4,-1.35,0.0,1.0,3.0
1906,24.35976,t,491.0,511.0,225.0,79.0,437.0,246.0,278.0,390.0,9.41,-2.71,0.3,-33.31,33.0,47.31,0.69,-0.37,-0.2,-0.2,-1.48,-2.96,-1.53,0.0,1.0,3.0
1907,24.374763,t,503.0,511.0,173.0,72.0,428.0,242.0,261.0,399.0,9.34,-2.94,0.39,-33.56,38.13,69.81,0.69,-0.38,-0.2,-0.2,-0.17,-2.63,-0.36,0.0,1.0,3.0
1908,24.389766,t,490.0,511.0,158.0,73.0,425.0,238.0,254.0,378.0,9.3,-3.07,0.42,-43.5,36.0,80.81,0.7,-0.39,-0.19,-0.19,0.64,-3.33,-0.61,0.0,1.0,3.0
1909,24.404828,t,497.0,463.0,146.0,75.0,419.0,224.0,241.0,360.0,9.18,-3.39,0.47,-44.88,30.19,103.44,0.7,-0.4,-0.19,-0.19,2.88,-4.44,1.14,0.0,1.0,3.0
1910,24.418861,t,469.0,426.0,142.0,78.0,407.0,221.0,232.0,352.0,9.11,-3.57,0.48,-44.69,21.37,112.37,0.7,-0.4,-0.18,-0.18,6.16,-3.99,1.26,0.0,1.0,3.0
1911,24.434925,t,401.0,366.0,131.0,80.0,353.0,208.0,214.0,326.0,8.95,-3.97,0.44,-41.94,0.75,132.75,0.7,-0.42,-0.17,-0.17,8.22,-2.9,1.24,0.0,1.0,3.0
1912,24.449042,t,357.0,339.0,127.0,80.0,327.0,201.0,218.0,301.0,8.84,-4.2,0.41,-42.06,-3.62,145.81,0.7,-0.44,-0.16,-0.16,7.74,-0.31,0.12,0.0,1.0,3.0
1913,24.464104,t,327.0,322.0,122.0,79.0,303.0,194.0,216.0,285.0,8.73,-4.45,0.38,-37.56,-0.62,159.37,0.7,-0.45,-0.15,-0.15,7.91,-0.03,-0.46,0.0,1.0,3.0
1914,24.479222,t,306.0,303.0,112.0,81.0,289.0,196.0,221.0,271.0,8.28,-5.23,0.31,-37.13,10.88,183.19,0.71,-0.47,-0.13,-0.13,7.78,0.53,0.61,0.0,1.0,3.0
1915,24.494314,t,294.0,265.0,120.0,74.0,276.0,189.0,227.0,263.0,8.11,-5.49,0.32,-28.56,27.06,180.31,0.71,-0.48,-0.12,-0.12,7.04,3.02,0.29,0.0,1.0,3.0
1916,24.50951,t,294.0,262.0,123.0,69.0,283.0,196.0,238.0,266.0,7.94,-5.73,0.35,-18.56,35.88,172.62,0.71,-0.49,-0.11,-0.11,4.27,4.78,1.26,0.0,1.0,3.0
1917,24.524648,t,301.0,265.0,123.0,70.0,291.0,205.0,242.0,270.0,7.78,-5.94,0.39,-16.44,35.88,156.06,0.71,-0.5,-0.1,-0.1,2.05,3.17,-1.0,0.0,1.0,3.0
1918,24.539677,t,314.0,271.0,122.0,70.0,298.0,212.0,252.0,281.0,7.54,-6.25,0.34,-25.5,0.0,101.75,0.71,-0.51,-0.09,-0.09,1.84,1.92,-0.68,0.0,1.0,3.0
1919,24.554806,t,364.0,279.0,118.0,68.0,327.0,225.0,235.0,306.0,7.4,-6.42,0.25,-8.06,-30.19,53.75,0.71,-0.52,-0.08,-0.08,2.99,0.82,0.75,0.0,1.0,3.0
1920,24.568839,t,370.0,280.0,118.0,69.0,337.0,233.0,234.0,311.0,7.36,-6.46,0.22,5.62,-33.56,38.0,0.71,-0.52,-0.08,-0.08,3.04,0.79,1.44,0.0,1.0,3.0
1921,24.58493,t,370.0,280.0,121.0,69.0,343.0,231.0,238.0,311.0,7.33,-6.5,0.21,23.0,-28.62,25.12,0.71,-0.51,-0.07,-0.07,3.27,2.26,1.89,0.0,1.0,3.0
1922,24.598933,t,358.0,274.0,121.0,68.0,337.0,222.0,243.0,312.0,7.32,-6.51,0.27,50.81,-7.62,1.75,0.71,-0.51,-0.07,-0.07,1.81,3.37,1.28,0.0,1.0,3.0
1923,24.613965,t,338.0,266.0,124.0,68.0,309.0,216.0,232.0,296.0,7.36,-6.45,0.42,63.69,11.13,-28.12,0.72,-0.5,-0.07,-0.07,0.93,4.15,1.03,0.0,1.0,3.0
1924,24.629023,t,340.0,274.0,122.0,70.0,302.0,212.0,230.0,286.0,7.41,-6.39,0.52,65.25,17.25,-41.94,0.72,-0.5,-0.07,-0.07,-0.79,5.61,1.04,0.0,1.0,3.0
1925,24.644134,t,339.0,276.0,118.0,70.0,295.0,214.0,222.0,291.0,7.47,-6.32,0.61,60.81,18.37,-53.31,0.73,-0.48,-0.07,-0.07,-1.34,6.03,0.35,0.0,1.0,3.0
1926,24.659378,t,327.0,272.0,103.0,69.0,284.0,205.0,213.0,290.0,7.7,-6.01,0.78,27.19,10.0,-85.06,0.73,-0.47,-0.08,-0.08,-2.34,5.73,0.32,0.0,1.0,3.0
1927,24.674495,t,325.0,278.0,106.0,69.0,273.0,194.0,202.0,274.0,7.8,-5.88,0.79,11.69,2.81,-95.81,0.73,-0.47,-0.09,-0.09,-2.27,5.03,0.64,0.0,1.0,3.0
1928,24.689579,t,306.0,262.0,107.0,69.0,266.0,191.0,200.0,269.0,7.9,-5.74,0.79,-1.69,-1.5,-106.69,0.73,-0.46,-0.09,-0.09,-2.16,4.32,1.06,0.0,1.0,3.0
1929,24.703859,t,304.0,247.0,107.0,69.0,253.0,188.0,198.0,265.0,8.02,-5.58,0.77,-26.06,-5.31,-123.06,0.72,-0.46,-0.11,-0.11,-1.5,2.19,0.8,0.0,1.0,3.0
1930,24.718892,t,310.0,230.0,104.0,70.0,245.0,185.0,200.0,269.0,8.36,-5.06,0.65,-43.88,-2.37,-125.94,0.72,-0.45,-0.13,-0.13,-1.76,0.81,-0.07,0.0,1.0,3.0
1931,24.734913,t,310.0,227.0,104.0,69.0,239.0,178.0,191.0,260.0,8.47,-4.89,0.61,-47.25,-3.87,-122.69,0.72,-0.45,-0.14,-0.14,-1.82,-0.41,-0.21,0.0,1.0,3.0
1932,24.749226,t,312.0,228.0,102.0,69.0,240.0,184.0,205.0,267.0,8.57,-4.72,0.56,-43.75,-5.5,-117.25,0.71,-0.44,-0.16,-0.16,-1.85,-1.07,0.02,0.0,1.0,3.0
1933,24.764375,t,327.0,237.0,106.0,68.0,232.0,186.0,200.0,261.0,8.66,-4.56,0.52,-38.19,-7.12,-104.94,0.7,-0.44,-0.17,-0.17,-1.63,-1.32,-0.87,0.0,1.0,3.0
1934,24.77944,t,330.0,268.0,98.0,69.0,225.0,186.0,201.0,263.0,8.88,-4.13,0.44,-15.25,-6.19,-87.5,0.7,-0.44,-0.18,-0.18,-1.48,-1.14,-1.12,0.0,1.0,3.0
1935,24.794517,t,339.0,284.0,97.0,69.0,222.0,190.0,203.0,265.0,8.93,-4.01,0.42,-11.0,-7.56,-77.87,0.7,-0.43,-0.18,-0.18,-1.14,-0.73,-1.11,0.0,1.0,3.0
1936,24.809595,t,346.0,297.0,96.0,68.0,219.0,187.0,207.0,266.0,8.98,-3.91,0.4,-13.13,-9.13,-69.12,0.7,-0.43,-0.18,-0.18,-1.02,-0.5,-1.21,0.0,1.0,3.0
1937,24.824662,t,360.0,317.0,95.0,68.0,228.0,187.0,210.0,268.0,9.06,-3.72,0.34,-18.75,-12.19,-57.63,0.69,-0.43,-0.2,-0.2,-1.44,-0.4,-0.77,0.0,1.0,3.0
1938,24.839694,t,358.0,325.0,97.0,68.0,230.0,188.0,211.0,266.0,9.09,-3.64,0.31,-16.5,-12.19,-54.31,0.69,-0.42,-0.2,-0.2,-1.6,-0.46,-0.67,0.0,1.0,3.0
1939,24.854723,t,360.0,331.0,100.0,68.0,232.0,191.0,212.0,263.0,9.16,-3.47,0.25,-16.69,-11.88,-54.25,0.69,-0.42,-0.2,-0.2,-1.34,-0.35,-0.58,0.0,1.0,3.0
1940,24.869754,t,362.0,334.0,99.0,73.0,231.0,191.0,222.0,258.0,9.19,-3.39,0.22,-20.06,-12.69,-52.81,0.68,-0.42,-0.21,-0.21,-0.68,-1.39,-0.45,0.0,1.0,3.0
1941,24.884774,t,371.0,346.0,102.0,75.0,239.0,200.0,243.0,248.0,9.25,-3.23,0.14,-34.25,-11.88,-49.06,0.68,-0.42,-0.22,-0.22,-1.35,-2.22,-0.74,0.0,1.0,3.0
1942,24.898849,t,380.0,360.0,106.0,74.0,236.0,201.0,248.0,235.0,9.28,-3.16,0.1,-39.63,-10.63,-48.94,0.67,-0.42,-0.22,-0.22,-2.37,-3.06,-0.5,0.0,1.0,3.0
1943,24.914902,t,396.0,383.0,111.0,75.0,238.0,198.0,248.0,235.0,9.33,-3.0,0.03,-29.94,-10.94,-48.81,0.67,-0.42,-0.23,-0.23,-2.82,-3.38,-0.05,0.0,1.0,3.0
1944,24.928903,t,409.0,391.0,122.0,75.0,238.0,202.0,257.0,238.0,9.35,-2.92,0.01,-13.94,-11.0,-46.94,0.67,-0.42,-0.23,-0.23,-3.27,-3.59,0.64,0.0,1.0,3.0
1945,24.944907,t,419.0,434.0,139.0,74.0,246.0,206.0,266.0,252.0,9.39,-2.79,-0.02,9.81,-11.13,-38.06,0.67,-0.41,-0.23,-0.23,-3.62,-3.56,0.21,0.0,1.0,3.0
1946,24.958966,t,422.0,455.0,150.0,76.0,250.0,209.0,270.0,275.0,9.41,-2.74,-0.03,24.12,-16.44,-22.44,0.67,-0.41,-0.23,-0.23,-3.66,-1.58,-0.1,0.0,1.0,3.0
1947,24.973969,t,439.0,484.0,182.0,80.0,255.0,216.0,278.0,293.0,9.42,-2.71,-0.04,29.25,-24.69,-15.44,0.66,-0.41,-0.23,-0.23,-3.09,-1.02,-0.06,0.0,1.0,3.0
1948,24.98909,t,500.0,511.0,274.0,79.0,280.0,220.0,329.0,359.0,9.44,-2.64,-0.18,29.0,-52.19,-13.13,0.66,-0.41,-0.23,-0.23,2.76,-2.53,-0.65,0.0,1.0,3.0
1949,25.004173,t,511.0,511.0,336.0,77.0,316.0,245.0,361.0,394.0,9.44,-2.61,-0.28,24.56,-68.75,-20.06,0.66,-0.4,-0.23,-0.23,5.17,-3.34,-2.85,0.0,1.0,3.0
1950,25.01926,t,511.0,511.0,370.0,76.0,338.0,246.0,358.0,424.0,9.45,-2.57,-0.38,59.44,-75.69,-26.12,0.66,-0.4,-0.22,-0.22,5.14,-2.26,-0.88,0.0,1.0,3.0
1951,25.034322,t,511.0,511.0,378.0,75.0,358.0,250.0,353.0,426.0,9.45,-2.54,-0.49,20.75,-30.0,20.06,0.66,-0.39,-0.21,-0.21,-0.3,-2.42,-0.69,0.0,1.0,3.0
1952,25.04934,t,511.0,511.0,401.0,74.0,346.0,248.0,370.0,446.0,9.42,-2.65,-0.55,5.12,-10.94,45.56,0.66,-0.4,-0.2,-0.2,0.17,0.26,-4.05,0.0,1.0,3.0
1953,25.064522,t,511.0,511.0,429.0,74.0,351.0,251.0,385.0,457.0,9.39,-2.75,-0.56,25.31,-12.56,63.44,0.66,-0.4,-0.2,-0.2,3.42,4.59,1.19,0.0,1.0,3.0
1954,25.079589,t,511.0,511.0,444.0,76.0,375.0,268.0,406.0,482.0,9.36,-2.85,-0.59,15.0,-21.75,63.19,0.66,-0.4,-0.19,-0.19,6.08,3.13,1.49,0.0,1.0,3.0
1955,25.094592,t,511.0,511.0,445.0,72.0,369.0,260.0,397.0,469.0,9.33,-2.94,-0.64,-8.63,-30.94,51.13,0.66,-0.41,-0.19,-0.19,7.2,0.67,-1.18,0.0,1.0,3.0
1956,25.109652,t,511.0,511.0,402.0,72.0,399.0,270.0,407.0,511.0,9.29,-3.06,-0.66,-40.06,15.44,21.62,0.66,-0.41,-0.19,-0.19,4.81,-1.53,-1.27,0.0,1.0,3.0
1957,25.124655,t,511.0,511.0,376.0,71.0,403.0,259.0,376.0,491.0,9.28,-3.09,-0.66,-30.0,10.88,25.25,0.66,-0.42,-0.19,-0.19,5.05,-0.86,-1.78,0.0,1.0,3.0
1958,25.139659,t,511.0,511.0,374.0,72.0,414.0,261.0,375.0,487.0,9.26,-3.13,-0.66,-13.5,6.5,24.06,0.66,-0.42,-0.19,-0.19,5.48,-0.32,-2.08,0.0,1.0,3.0
1959,25.154662,t,511.0,511.0,375.0,72.0,400.0,261.0,381.0,463.0,9.25,-3.18,-0.62,18.5,6.56,12.44,0.66,-0.42,-0.19,-0.19,4.31,2.41,-0.58,0.0,1.0,3.0
1960,25.169666,t,511.0,511.0,376.0,69.0,386.0,261.0,379.0,444.0,9.25,-3.19,-0.6,23.19,9.69,-1.5,0.66,-0.42,-0.19,-0.19,4.0,2.64,-1.21,0.0,1.0,3.0
1961,25.184698,t,511.0,511.0,372.0,68.0,378.0,260.0,377.0,436.0,9.25,-3.18,-0.55,18.75,9.94,-9.25,0.66,-0.41,-0.19,-0.19,3.62,2.51,-1.38,0.0,1.0,3.0
1962,25.199702,t,511.0,511.0,365.0,69.0,374.0,264.0,372.0,437.0,9.28,-3.11,-0.52,6.31,3.44,-26.75,0.66,-0.41,-0.19,-0.19,2.6,1.89,-1.22,0.0,1.0,3.0
1963,25.214746,t,511.0,511.0,360.0,69.0,367.0,266.0,369.0,437.0,9.3,-3.06,-0.52,2.31,-1.69,-33.38,0.66,-0.41,-0.19,-0.19,1.66,1.15,-0.79,0.0,1.0,3.0
1964,25.228788,t,511.0,511.0,354.0,68.0,361.0,262.0,370.0,436.0,9.32,-3.0,-0.53,1.37,-6.87,-38.31,0.66,-0.4,-0.19,-0.19,1.48,0.61,-1.02,0.0,1.0,3.0
1965,25.244807,t,511.0,511.0,362.0,69.0,366.0,262.0,373.0,432.0,9.36,-2.86,-0.54,17.81,-7.31,-43.38,0.66,-0.4,-0.2,-0.2,0.8,0.15,-0.9,0.0,1.0,3.0
1966,25.258882,t,499.0,511.0,364.0,72.0,369.0,266.0,380.0,426.0,9.4,-2.72,-0.53,35.19,-4.31,-45.31,0.66,-0.39,-0.2,-0.2,-0.11,-0.46,-0.7,0.0,1.0,3.0
1967,25.274886,t,511.0,511.0,361.0,72.0,366.0,260.0,375.0,432.0,9.42,-2.65,-0.51,43.0,-3.0,-44.88,0.66,-0.39,-0.2,-0.2,-0.41,-0.58,-0.5,0.0,1.0,3.0
1968,25.288942,t,511.0,511.0,361.0,72.0,366.0,262.0,376.0,439.0,9.44,-2.59,-0.49,47.0,0.81,-43.56,0.66,-0.38,-0.2,-0.2,-0.8,-0.77,-0.23,0.0,1.0,3.0
1969,25.304073,t,511.0,511.0,363.0,72.0,372.0,264.0,370.0,450.0,9.49,-2.42,-0.4,51.88,7.31,-32.81,0.66,-0.37,-0.2,-0.2,-2.67,-1.07,0.05,0.0,1.0,3.0
1970,25.319211,t,511.0,511.0,366.0,73.0,381.0,266.0,369.0,446.0,9.5,-2.37,-0.36,51.31,8.25,-27.62,0.67,-0.36,-0.2,-0.2,-3.13,-1.01,0.25,0.0,1.0,3.0
1971,25.334325,t,511.0,511.0,367.0,72.0,382.0,268.0,370.0,445.0,9.51,-2.34,-0.32,48.38,10.81,-22.87,0.67,-0.36,-0.19,-0.19,-3.96,-0.08,0.59,0.0,1.0,3.0
1972,25.349461,t,511.0,511.0,371.0,72.0,388.0,266.0,368.0,443.0,9.52,-2.31,-0.28,42.25,14.0,-19.12,0.67,-0.35,-0.19,-0.19,-4.76,1.28,0.11,0.0,1.0,3.0
1973,25.364586,t,511.0,511.0,374.0,73.0,392.0,266.0,373.0,435.0,9.53,-2.26,-0.19,20.19,18.12,-16.0,0.67,-0.35,-0.19,-0.19,-4.97,1.06,-0.7,0.0,1.0,3.0
1974,25.37963,t,511.0,511.0,373.0,73.0,406.0,265.0,372.0,436.0,9.55,-2.21,-0.13,6.87,14.19,-18.75,0.67,-0.35,-0.19,-0.19,-4.63,-0.05,-1.22,0.0,1.0,3.0
1975,25.39469,t,511.0,511.0,372.0,75.0,415.0,265.0,365.0,438.0,9.56,-2.17,-0.12,-0.56,7.25,-20.5,0.67,-0.34,-0.2,-0.2,-4.07,-1.19,-1.28,0.0,1.0,3.0
1976,25.409749,t,511.0,511.0,364.0,78.0,419.0,267.0,358.0,436.0,9.56,-2.14,-0.13,-4.56,-5.19,-16.56,0.67,-0.34,-0.2,-0.2,-2.97,-2.71,-1.16,0.0,1.0,3.0
1977,25.424752,t,511.0,511.0,351.0,81.0,426.0,275.0,365.0,454.0,9.57,-2.09,-0.14,-7.31,-6.44,-12.25,0.67,-0.34,-0.2,-0.2,-3.01,-2.35,-0.97,0.0,1.0,3.0
1978,25.439756,t,511.0,511.0,346.0,81.0,431.0,274.0,376.0,475.0,9.58,-2.08,-0.16,-13.06,-1.31,-1.19,0.67,-0.34,-0.2,-0.2,-2.64,-1.46,-1.07,0.0,1.0,3.0
1979,25.454818,t,511.0,511.0,342.0,80.0,453.0,272.0,366.0,469.0,9.58,-2.08,-0.16,-16.87,3.62,4.69,0.67,-0.35,-0.2,-0.2,-2.37,-2.29,-1.49,0.0,1.0,3.0
1980,25.468881,t,511.0,511.0,310.0,77.0,462.0,265.0,333.0,443.0,9.57,-2.13,-0.15,-13.25,8.5,17.69,0.67,-0.35,-0.2,-0.2,-1.57,-3.99,-0.95,0.0,1.0,3.0
1981,25.484884,t,511.0,511.0,296.0,76.0,459.0,268.0,327.0,456.0,9.56,-2.17,-0.14,-13.13,9.63,26.81,0.67,-0.35,-0.2,-0.2,-0.52,-5.44,-0.31,0.0,1.0,3.0
1982,25.498933,t,511.0,511.0,280.0,78.0,474.0,271.0,319.0,460.0,9.52,-2.32,-0.08,-8.38,25.75,49.56,0.68,-0.36,-0.2,-0.2,-0.55,-4.81,-0.31,0.0,1.0,3.0
1983,25.514981,t,511.0,511.0,254.0,78.0,476.0,264.0,305.0,469.0,9.47,-2.54,0.03,-13.81,39.25,75.19,0.68,-0.36,-0.19,-0.19,-0.67,-4.91,1.52,0.0,1.0,3.0
1984,25.528979,t,511.0,511.0,208.0,75.0,470.0,263.0,294.0,454.0,9.42,-2.69,0.09,-23.19,46.19,91.87,0.68,-0.37,-0.19,-0.19,-0.26,-4.63,1.62,0.0,1.0,3.0
1985,25.544049,t,511.0,511.0,180.0,75.0,459.0,257.0,273.0,428.0,9.37,-2.87,0.16,-38.0,52.31,109.5,0.69,-0.38,-0.19,-0.19,2.61,-4.11,1.94,0.0,1.0,3.0
1986,25.559071,t,508.0,511.0,154.0,77.0,441.0,257.0,263.0,406.0,9.3,-3.07,0.22,-62.56,48.44,140.87,0.69,-0.39,-0.18,-0.18,4.16,-3.79,2.37,0.0,1.0,3.0
1987,25.574159,t,416.0,440.0,133.0,80.0,349.0,232.0,230.0,331.0,9.03,-3.8,0.29,-79.56,36.69,161.25,0.7,-0.41,-0.17,-0.17,7.34,-3.62,0.84,0.0,1.0,3.0
1988,25.589239,t,370.0,394.0,123.0,79.0,326.0,220.0,222.0,308.0,8.91,-4.07,0.28,-75.62,24.87,174.25,0.7,-0.43,-0.16,-0.16,7.7,-1.94,-0.34,0.0,1.0,3.0
1989,25.604387,t,326.0,356.0,122.0,79.0,306.0,206.0,212.0,288.0,8.77,-4.36,0.25,-63.13,12.38,185.69,0.7,-0.44,-0.16,-0.16,8.03,-0.38,-1.04,0.0,1.0,3.0
1990,25.619434,t,304.0,338.0,127.0,80.0,290.0,197.0,211.0,282.0,8.62,-4.65,0.21,-55.44,0.69,199.12,0.7,-0.47,-0.13,-0.13,6.86,2.6,-0.87,0.0,1.0,3.0
1991,25.634566,t,288.0,319.0,127.0,80.0,282.0,202.0,221.0,272.0,8.46,-5.5,0.12,-43.0,15.0,190.5,0.7,-0.49,-0.12,-0.12,6.39,2.89,-1.79,0.0,1.0,3.0
1992,25.649602,t,284.0,284.0,122.0,69.0,272.0,213.0,250.0,267.0,7.94,-5.74,0.11,-45.0,18.69,174.19,0.7,-0.5,-0.11,-0.11,6.16,2.48,-2.07,0.0,1.0,3.0
1993,25.664615,t,293.0,280.0,119.0,68.0,272.0,210.0,245.0,264.0,7.78,-5.95,0.08,-43.75,9.94,153.0,0.7,-0.5,-0.1,-0.1,4.29,1.45,-3.45,0.0,1.0,3.0
1994,25.679629,t,341.0,291.0,122.0,68.0,301.0,222.0,254.0,290.0,7.53,-6.27,-0.02,-28.19,-19.69,110.37,0.7,-0.52,-0.08,-0.08,3.76,0.54,-1.65,0.0,1.0,3.0
1995,25.694623,t,341.0,291.0,122.0,68.0,301.0,222.0,254.0,290.0,7.53,-6.27,-0.02,-28.19,-19.69,110.37,0.7,-0.52,-0.08,-0.08,3.59,0.49,1.1,0.0,1.0,3.0
1996,25.709635,t,370.0,279.0,111.0,69.0,337.0,242.0,258.0,327.0,7.25,-6.6,-0.11,29.12,-24.75,70.75,0.7,-0.53,-0.07,-0.07,3.36,1.21,1.76,0.0,1.0,3.0
1997,25.724691,t,374.0,271.0,111.0,68.0,347.0,236.0,251.0,319.0,7.18,-6.67,-0.07,49.38,-13.56,56.25,0.7,-0.53,-0.06,-0.06,2.89,2.16,2.22,0.0,1.0,3.0
1998,25.739695,t,376.0,271.0,116.0,69.0,348.0,234.0,242.0,319.0,7.13,-6.72,0.0,60.81,-0.62,45.06,0.7,-0.53,-0.05,-0.05,-0.11,3.47,1.87,0.0,1.0,3.0
1999,25.754698,t,357.0,284.0,129.0,68.0,340.0,230.0,224.0,297.0,7.05,-6.8,0.36,103.69,22.75,10.56,0.72,-0.51,-0.05,-0.05,-0.7,3.83,1.74,0.0,1.0,3.0
2000,25.769704,t,340.0,288.0,126.0,70.0,330.0,228.0,221.0,290.0,7.05,-6.79,0.52,109.12,24.0,-1.81,0.72,-0.51,-0.04,-0.04,-2.42,4.5,1.52,0.0,1.0,3.0
2001,25.784705,t,339.0,291.0,122.0,69.0,319.0,226.0,216.0,286.0,7.06,-6.76,0.67,102.31,22.31,-15.19,0.73,-0.5,-0.04,-0.04,-2.53,4.57,1.07,0.0,1.0,3.0
2002,25.799739,t,315.0,270.0,107.0,69.0,302.0,212.0,202.0,279.0,7.14,-6.65,0.89,65.31,19.12,-40.63,0.74,-0.48,-0.04,-0.04,-3.26,5.59,-0.15,0.0,1.0,3.0
2003,25.814767,t,304.0,260.0,112.0,72.0,290.0,204.0,197.0,273.0,7.19,-6.58,0.96,20.06,11.75,-63.38,0.74,-0.48,-0.05,-0.05,-3.16,5.5,-0.32,0.0,1.0,3.0
2004,25.829771,t,290.0,244.0,115.0,70.0,286.0,202.0,200.0,271.0,7.35,-6.41,1.01,0.0,7.75,-75.75,0.74,-0.47,-0.05,-0.05,-2.98,5.26,-0.08,0.0,1.0,3.0
2005,25.844789,t,282.0,228.0,109.0,70.0,272.0,197.0,200.0,265.0,7.44,-6.3,1.0,-28.5,2.94,-96.56,0.74,-0.47,-0.07,-0.07,-2.16,3.77,0.8,0.0,1.0,3.0
2006,25.859833,t,280.0,210.0,107.0,68.0,247.0,176.0,187.0,248.0,7.65,-6.05,0.92,-45.56,2.06,-101.81,0.74,-0.47,-0.07,-0.07,-1.93,2.83,0.39,0.0,1.0,3.0
2007,25.874864,t,280.0,206.0,106.0,69.0,240.0,174.0,186.0,240.0,7.76,-5.92,0.87,-59.25,2.62,-103.56,0.73,-0.47,-0.08,-0.08,-1.73,1.74,-0.04,0.0,1.0,3.0
2008,25.889897,t,281.0,202.0,106.0,69.0,240.0,168.0,186.0,242.0,7.86,-5.8,0.81,-65.31,2.44,-97.5,0.73,-0.47,-0.1,-0.1,-1.64,-1.22,-0.52,0.0,1.0,3.0
2009,25.903948,t,286.0,200.0,112.0,68.0,224.0,170.0,186.0,248.0,8.13,-5.44,0.63,-48.13,-4.75,-84.69,0.72,-0.47,-0.12,-0.12,-1.74,-1.81,-1.03,0.0,1.0,3.0
2010,25.918951,t,298.0,203.0,112.0,69.0,225.0,174.0,186.0,249.0,8.2,-5.33,0.59,-38.56,-7.12,-79.19,0.72,-0.47,-0.12,-0.12,-1.84,-1.4,-1.41,0.0,1.0,3.0
2011,25.93405,t,295.0,203.0,111.0,69.0,223.0,178.0,191.0,259.0,8.27,-5.23,0.55,-31.75,-7.56,-75.75,0.71,-0.46,-0.13,-0.13,-1.74,-1.19,-1.51,0.0,1.0,3.0
2012,25.949107,t,302.0,216.0,108.0,69.0,218.0,174.0,191.0,253.0,8.34,-5.13,0.52,-20.75,-5.12,-72.94,0.71,-0.46,-0.14,-0.14,-2.0,-0.79,-1.23,0.0,1.0,3.0
2013,25.964195,t,299.0,220.0,105.0,70.0,222.0,163.0,194.0,255.0,8.53,-4.8,0.47,-3.19,-2.69,-79.81,0.71,-0.46,-0.15,-0.15,-2.39,-1.81,-0.21,0.0,1.0,3.0
2014,25.979227,t,301.0,218.0,105.0,70.0,223.0,163.0,195.0,251.0,8.6,-4.67,0.47,3.69,-1.5,-85.06,0.71,-0.45,-0.15,-0.15,-2.65,-2.68,-0.53,0.0,1.0,3.0
2015,25.994345,t,306.0,219.0,104.0,70.0,229.0,168.0,194.0,253.0,8.67,-4.54,0.47,8.94,-2.62,-89.37,0.71,-0.44,-0.16,-0.16,-2.66,-3.51,-1.21,0.0,1.0,3.0
2016,26.009377,t,315.0,232.0,101.0,68.0,231.0,178.0,196.0,252.0,8.74,-4.4,0.47,11.38,-8.06,-89.44,0.7,-0.44,-0.17,-0.17,-0.5,-5.85,-1.28,0.0,1.0,3.0
2017,26.02448,t,328.0,253.0,97.0,69.0,236.0,189.0,210.0,272.0,8.9,-4.09,0.46,18.5,-8.25,-53.06,0.7,-0.43,-0.17,-0.17,0.23,-7.26,-1.04,0.0,1.0,3.0
2018,26.0396,t,340.0,260.0,95.0,68.0,238.0,189.0,205.0,269.0,8.92,-4.04,0.45,14.25,-7.31,-32.19,0.7,-0.43,-0.17,-0.17,-0.19,-7.1,-0.13,0.0,1.0,3.0
2019,26.054621,t,341.0,268.0,100.0,69.0,246.0,188.0,217.0,292.0,8.93,-4.02,0.45,11.75,-9.81,-11.38,0.7,-0.43,-0.17,-0.17,-1.15,-5.82,-0.2,0.0,1.0,3.0
2020,26.069653,t,347.0,282.0,129.0,69.0,249.0,198.0,213.0,298.0,8.92,-4.05,0.4,11.88,-24.69,14.69,0.7,-0.43,-0.17,-0.17,-3.52,-1.37,-0.41,0.0,1.0,3.0
2021,26.084656,t,351.0,293.0,143.0,69.0,246.0,191.0,211.0,292.0,8.9,-4.09,0.31,7.31,-35.75,13.94,0.7,-0.43,-0.16,-0.16,-3.92,0.11,0.37,0.0,1.0,3.0
2022,26.099719,t,340.0,310.0,153.0,70.0,240.0,175.0,214.0,294.0,8.9,-4.1,0.26,0.37,-34.81,7.12,0.7,-0.43,-0.16,-0.16,-3.93,0.22,0.67,0.0,1.0,3.0
2023,26.114723,t,371.0,368.0,224.0,78.0,254.0,180.0,261.0,319.0,8.91,-4.08,0.14,-15.0,-33.19,-15.25,0.69,-0.43,-0.16,-0.16,-4.1,-0.55,1.46,0.0,1.0,3.0
2024,26.12978,t,402.0,419.0,275.0,78.0,269.0,210.0,300.0,358.0,8.93,-4.03,0.05,-13.63,-53.88,-28.19,0.68,-0.43,-0.16,-0.16,-1.44,-0.64,0.22,0.0,1.0,3.0
2025,26.144841,t,456.0,511.0,310.0,78.0,295.0,225.0,315.0,383.0,9.0,-3.88,-0.26,-17.0,-100.56,-53.75,0.68,-0.43,-0.16,-0.16,9.27,4.12,4.29,0.0,1.0,3.0
2026,26.158881,t,511.0,511.0,336.0,77.0,298.0,244.0,306.0,412.0,9.02,-3.81,-0.42,-55.75,-79.37,-45.0,0.67,-0.43,-0.17,-0.17,7.47,4.0,6.86,0.0,1.0,3.0
2027,26.174885,t,471.0,511.0,379.0,73.0,305.0,243.0,330.0,380.0,9.05,-3.71,-0.6,-4.87,-36.44,-31.31,0.66,-0.43,-0.17,-0.17,4.41,0.07,-1.79,0.0,1.0,3.0
2028,26.188977,t,451.0,511.0,403.0,73.0,308.0,231.0,344.0,370.0,9.07,-3.67,-0.61,-8.25,-2.19,-24.25,0.66,-0.43,-0.17,-0.17,3.73,-0.91,-4.91,0.0,1.0,3.0
2029,26.204094,t,432.0,511.0,422.0,73.0,310.0,230.0,357.0,379.0,9.06,-3.69,-0.61,35.63,-35.06,24.81,0.66,-0.43,-0.16,-0.16,5.78,1.83,0.59,0.0,1.0,3.0
2030,26.219214,t,424.0,511.0,415.0,71.0,319.0,236.0,367.0,392.0,9.02,-3.76,-0.69,-26.44,-6.81,3.31,0.66,-0.43,-0.16,-0.16,6.01,5.87,-4.61,0.0,1.0,3.0
2031,26.234361,t,481.0,511.0,356.0,79.0,343.0,237.0,363.0,424.0,9.02,-3.75,-0.75,-42.13,-4.94,-3.69,0.66,-0.44,-0.16,-0.16,5.51,4.19,-2.38,0.0,1.0,3.0
2032,26.249532,t,511.0,511.0,340.0,81.0,354.0,241.0,354.0,422.0,9.02,-3.74,-0.81,-40.5,-19.5,-5.44,0.66,-0.44,-0.16,-0.16,6.62,3.32,-0.06,0.0,1.0,3.0
2033,26.264599,t,511.0,511.0,350.0,80.0,360.0,241.0,355.0,433.0,9.03,-3.72,-0.83,-9.81,-11.63,-12.69,0.66,-0.44,-0.17,-0.17,7.65,3.75,-0.3,0.0,1.0,3.0
2034,26.27964,t,483.0,511.0,352.0,76.0,350.0,242.0,364.0,406.0,9.06,-3.65,-0.74,51.19,34.0,-35.69,0.66,-0.43,-0.17,-0.17,6.19,4.07,-0.5,0.0,1.0,3.0
2035,26.294674,t,484.0,511.0,356.0,75.0,355.0,254.0,363.0,404.0,9.12,-3.55,-0.56,56.5,36.19,-40.5,0.67,-0.42,-0.17,-0.17,4.86,4.83,-0.6,0.0,1.0,3.0
2036,26.309703,t,484.0,511.0,359.0,76.0,349.0,259.0,367.0,410.0,9.15,-3.47,-0.48,50.25,32.06,-49.94,0.67,-0.42,-0.17,-0.17,4.19,4.94,-0.71,0.0,1.0,3.0
2037,26.324736,t,495.0,511.0,367.0,73.0,360.0,262.0,365.0,423.0,9.19,-3.37,-0.42,34.44,27.25,-65.0,0.67,-0.4,-0.18,-0.18,3.12,2.86,-0.01,0.0,1.0,3.0
2038,26.339739,t,511.0,511.0,370.0,75.0,366.0,266.0,352.0,442.0,9.28,-3.15,-0.34,-12.31,17.69,-70.81,0.67,-0.4,-0.19,-0.19,1.64,2.36,0.13,0.0,1.0,3.0
2039,26.35476,t,511.0,511.0,376.0,73.0,364.0,266.0,352.0,440.0,9.35,-2.92,-0.31,-20.75,14.75,-70.5,0.67,-0.4,-0.19,-0.19,1.02,2.28,-0.33,0.0,1.0,3.0
2040,26.369774,t,511.0,511.0,376.0,72.0,360.0,267.0,354.0,438.0,9.39,-2.8,-0.3,-27.75,15.63,-69.5,0.67,-0.39,-0.2,-0.2,0.58,2.25,-0.59,0.0,1.0,3.0
2041,26.384779,t,488.0,511.0,373.0,69.0,354.0,266.0,370.0,460.0,9.42,-2.69,-0.28,-36.69,18.31,-67.69,0.67,-0.39,-0.2,-0.2,0.28,1.86,-0.67,0.0,1.0,3.0
2042,26.398801,t,477.0,511.0,358.0,68.0,324.0,245.0,359.0,414.0,9.48,-2.48,-0.26,-48.06,20.44,-64.37,0.66,-0.39,-0.23,-0.23,-1.63,0.16,-0.87,0.0,1.0,3.0
2043,26.414845,t,465.0,510.0,360.0,69.0,323.0,249.0,374.0,432.0,9.51,-2.37,-0.24,-44.88,18.31,-64.19,0.66,-0.39,-0.23,-0.23,-1.99,0.07,-1.07,0.0,1.0,3.0
2044,26.429847,t,470.0,489.0,357.0,68.0,310.0,241.0,362.0,411.0,9.56,-2.15,-0.22,-39.56,17.25,-64.0,0.66,-0.39,-0.24,-0.24,-2.41,-0.05,-1.33,0.0,1.0,3.0
2045,26.444906,t,466.0,494.0,369.0,72.0,297.0,248.0,362.0,416.0,9.61,-1.94,-0.19,-24.19,12.25,-65.37,0.65,-0.38,-0.25,-0.25,-3.1,-0.57,-1.4,0.0,1.0,3.0
2046,26.458939,t,465.0,498.0,371.0,72.0,295.0,251.0,361.0,418.0,9.63,-1.83,-0.18,-13.75,8.25,-65.75,0.65,-0.38,-0.25,-0.25,-2.97,-0.95,-1.2,0.0,1.0,3.0
2047,26.474106,t,465.0,506.0,374.0,69.0,288.0,254.0,360.0,416.0,9.65,-1.72,-0.17,-3.31,6.19,-64.94,0.65,-0.37,-0.26,-0.26,-2.77,-1.19,-0.99,0.0,1.0,3.0
2048,26.489165,t,470.0,511.0,380.0,71.0,288.0,258.0,365.0,424.0,9.68,-1.51,-0.15,14.06,4.25,-59.38,0.65,-0.36,-0.27,-0.27,-2.17,-1.67,-1.0,0.0,1.0,3.0
2049,26.504325,t,473.0,511.0,396.0,71.0,296.0,266.0,369.0,435.0,9.71,-1.32,-0.14,23.87,-1.87,-56.56,0.65,-0.36,-0.27,-0.27,-1.91,-1.68,-0.94,0.0,1.0,3.0
2050,26.519521,t,476.0,511.0,404.0,74.0,298.0,270.0,375.0,440.0,9.72,-1.23,-0.14,25.56,-3.5,-54.25,0.65,-0.35,-0.27,-0.27,-1.34,-1.45,-0.95,0.0,1.0,3.0
2051,26.534567,t,480.0,511.0,414.0,78.0,306.0,281.0,390.0,464.0,9.73,-1.14,-0.14,26.19,-4.25,-52.38,0.65,-0.35,-0.27,-0.27,-1.19,-1.51,-0.94,0.0,1.0,3.0
2052,26.549631,t,497.0,511.0,413.0,74.0,300.0,274.0,391.0,466.0,9.76,-0.91,-0.15,30.5,-5.44,-45.25,0.65,-0.34,-0.27,-0.27,-1.02,-2.69,-0.66,0.0,1.0,3.0
2053,26.564664,t,507.0,511.0,430.0,80.0,312.0,284.0,410.0,486.0,9.76,-0.83,-0.15,30.62,-4.25,-43.25,0.65,-0.33,-0.27,-0.27,-1.08,-2.46,-0.49,0.0,1.0,3.0
2054,26.579655,t,511.0,511.0,434.0,78.0,300.0,277.0,397.0,472.0,9.77,-0.77,-0.16,26.31,-3.94,-41.38,0.64,-0.33,-0.28,-0.28,-0.73,-2.24,-0.24,0.0,1.0,3.0
2055,26.594698,t,511.0,511.0,444.0,79.0,306.0,288.0,428.0,505.0,9.77,-0.7,-0.16,19.5,-3.0,-38.69,0.64,-0.33,-0.28,-0.28,0.27,-1.4,-0.88,0.0,1.0,3.0
2056,26.6097,t,511.0,511.0,454.0,76.0,297.0,282.0,406.0,491.0,9.79,-0.54,-0.14,-2.06,6.44,-28.06,0.64,-0.32,-0.28,-0.28,0.47,-1.28,-1.88,0.0,1.0,3.0
2057,26.624738,t,511.0,511.0,456.0,80.0,294.0,284.0,408.0,494.0,9.79,-0.5,-0.13,-10.19,7.0,-25.0,0.64,-0.32,-0.28,-0.28,0.92,-1.76,-2.18,0.0,1.0,3.0
2058,26.63978,t,511.0,511.0,463.0,82.0,299.0,286.0,411.0,505.0,9.79,-0.46,-0.12,-16.69,7.5,-22.06,0.64,-0.32,-0.29,-0.29,1.03,-2.15,-2.13,0.0,1.0,3.0
2059,26.654831,t,511.0,511.0,453.0,83.0,306.0,274.0,416.0,511.0,9.79,-0.39,-0.09,-24.12,12.19,-19.0,0.64,-0.32,-0.29,-0.29,1.08,-3.6,-2.23,0.0,1.0,3.0
2060,26.669876,t,511.0,511.0,436.0,83.0,311.0,268.0,419.0,511.0,9.79,-0.37,-0.06,-20.75,14.38,-15.0,0.64,-0.32,-0.3,-0.3,1.06,-5.1,-2.73,0.0,1.0,3.0
2061,26.684908,t,511.0,511.0,428.0,84.0,319.0,268.0,410.0,511.0,9.8,-0.35,-0.04,-11.88,15.38,-1.62,0.64,-0.32,-0.3,-0.3,0.96,-6.09,-2.04,0.0,1.0,3.0
2062,26.699,t,511.0,511.0,409.0,87.0,331.0,265.0,394.0,511.0,9.79,-0.36,0.01,-25.5,27.0,16.56,0.64,-0.32,-0.3,-0.3,0.15,-7.82,0.28,0.0,1.0,3.0
2063,26.714084,t,511.0,511.0,368.0,85.0,338.0,241.0,368.0,496.0,9.79,-0.44,0.11,-27.75,33.0,29.37,0.65,-0.32,-0.3,-0.3,-0.22,-7.72,0.6,0.0,1.0,3.0
2064,26.729202,t,511.0,487.0,346.0,83.0,338.0,229.0,355.0,472.0,9.79,-0.51,0.17,-27.06,37.69,43.94,0.65,-0.33,-0.3,-0.3,-0.35,-7.26,0.74,0.0,1.0,3.0
2065,26.746247,t,461.0,414.0,323.0,85.0,329.0,222.0,334.0,452.0,9.77,-0.75,0.31,-32.25,46.5,79.81,0.65,-0.34,-0.3,-0.3,0.0,-4.88,0.46,0.0,1.0,3.0
2066,26.759347,t,434.0,369.0,290.0,86.0,297.0,195.0,271.0,386.0,9.72,-1.13,0.49,-40.88,59.31,118.94,0.66,-0.35,-0.29,-0.29,0.69,-2.31,-0.01,0.0,1.0,3.0
2067,26.774462,t,434.0,369.0,290.0,86.0,297.0,195.0,249.0,352.0,9.69,-1.36,0.58,-45.44,61.69,136.12,0.67,-0.36,-0.29,-0.29,2.49,-0.62,-0.1,0.0,1.0,3.0
2068,26.789543,t,366.0,331.0,255.0,86.0,277.0,173.0,238.0,323.0,9.64,-1.61,0.67,-49.75,63.63,146.12,0.68,-0.37,-0.28,-0.28,4.19,1.72,-0.45,0.0,1.0,3.0
2069,26.804625,t,338.0,326.0,240.0,83.0,264.0,152.0,222.0,290.0,9.59,-1.86,0.77,-57.75,68.06,144.25,0.68,-0.38,-0.28,-0.28,5.17,2.98,-0.84,0.0,1.0,3.0
2070,26.819644,t,298.0,308.0,220.0,80.0,247.0,149.0,214.0,263.0,9.41,-2.56,1.01,-78.0,62.25,127.37,0.69,-0.4,-0.27,-0.27,5.24,6.46,-1.0,0.0,1.0,3.0
2071,26.834708,t,282.0,301.0,206.0,80.0,245.0,155.0,210.0,254.0,9.34,-2.77,1.05,-99.69,50.19,118.44,0.69,-0.41,-0.27,-0.27,4.07,6.85,-0.78,0.0,1.0,3.0
2072,26.849752,t,279.0,300.0,189.0,78.0,245.0,153.0,201.0,253.0,9.28,-2.97,1.03,-122.19,25.69,111.75,0.69,-0.44,-0.27,-0.27,2.29,6.22,-0.78,0.0,1.0,3.0
2073,26.864794,t,282.0,292.0,174.0,81.0,250.0,151.0,203.0,253.0,9.23,-3.16,0.95,-143.37,-3.25,106.37,0.69,-0.46,-0.27,-0.27,3.15,2.31,0.56,0.0,1.0,3.0
2074,26.87905,t,295.0,270.0,155.0,77.0,256.0,150.0,200.0,258.0,9.05,-3.71,0.57,-175.12,-31.75,99.62,0.67,-0.48,-0.27,-0.27,2.81,-0.36,0.42,0.0,1.0,3.0
2075,26.894137,t,309.0,262.0,158.0,75.0,268.0,158.0,201.0,272.0,8.99,-3.88,0.4,-175.75,-34.0,98.31,0.67,-0.49,-0.27,-0.27,2.47,-1.42,0.67,0.0,1.0,3.0
2076,26.909226,t,319.0,250.0,155.0,72.0,278.0,165.0,204.0,279.0,8.92,-4.04,0.28,-134.19,-23.56,98.06,0.66,-0.51,-0.27,-0.27,2.02,-1.86,1.32,0.0,1.0,3.0
2077,26.924259,t,308.0,240.0,166.0,72.0,287.0,172.0,218.0,288.0,8.86,-4.19,0.15,-98.75,-20.69,94.25,0.65,-0.54,-0.26,-0.26,-0.25,-0.78,1.42,0.0,1.0,3.0
2078,26.93938,t,296.0,240.0,168.0,72.0,290.0,178.0,232.0,277.0,8.65,-4.6,-0.05,-12.81,-15.56,83.06,0.66,-0.54,-0.26,-0.26,0.11,0.28,1.32,0.0,1.0,3.0
2079,26.954465,t,296.0,236.0,166.0,72.0,288.0,184.0,230.0,270.0,8.59,-4.71,-0.06,26.19,-15.13,76.5,0.66,-0.54,-0.25,-0.25,-0.38,0.66,1.26,0.0,1.0,3.0
2080,26.96955,t,298.0,238.0,168.0,71.0,284.0,187.0,220.0,263.0,8.54,-4.81,-0.03,56.0,-13.31,70.31,0.66,-0.54,-0.25,-0.25,-1.35,1.9,0.93,0.0,1.0,3.0
2081,26.984638,t,302.0,235.0,178.0,69.0,289.0,187.0,215.0,264.0,8.43,-5.0,0.06,106.62,-17.56,58.38,0.68,-0.53,-0.22,-0.22,-2.18,4.05,1.66,0.0,1.0,3.0
2082,26.999659,t,319.0,314.0,145.0,69.0,294.0,198.0,214.0,271.0,8.33,-5.16,0.2,111.19,-17.75,55.06,0.68,-0.53,-0.21,-0.21,-2.01,4.29,1.45,0.0,1.0,3.0
2083,27.014691,t,330.0,336.0,123.0,68.0,294.0,200.0,220.0,278.0,8.28,-5.23,0.28,107.81,-17.5,51.19,0.69,-0.53,-0.21,-0.21,-2.07,4.35,1.2,0.0,1.0,3.0
2084,27.029721,t,340.0,354.0,101.0,68.0,294.0,211.0,219.0,288.0,8.24,-5.29,0.34,91.31,-14.56,44.25,0.69,-0.52,-0.2,-0.2,-2.08,4.38,0.87,0.0,1.0,3.0
2085,27.045713,t,374.0,366.0,94.0,69.0,290.0,222.0,218.0,293.0,8.2,-5.35,0.42,52.69,-7.12,19.69,0.7,-0.52,-0.19,-0.19,-2.29,4.76,0.68,0.0,1.0,3.0
2086,27.059727,t,382.0,332.0,84.0,68.0,287.0,222.0,216.0,301.0,8.19,-5.36,0.46,27.37,-3.37,2.19,0.7,-0.51,-0.19,-0.19,-2.15,4.81,0.74,0.0,1.0,3.0
2087,27.07373,t,398.0,282.0,83.0,68.0,283.0,216.0,218.0,310.0,8.19,-5.35,0.49,19.0,-5.69,-5.94,0.7,-0.51,-0.19,-0.19,-1.93,4.1,1.14,0.0,1.0,3.0
2088,27.089734,t,410.0,245.0,87.0,69.0,285.0,216.0,227.0,307.0,8.23,-5.3,0.47,6.62,-15.31,-22.87,0.7,-0.51,-0.19,-0.19,-1.39,3.18,1.11,0.0,1.0,3.0
2089,27.104766,t,394.0,241.0,87.0,68.0,282.0,205.0,242.0,308.0,8.26,-5.25,0.44,0.94,-22.19,-31.19,0.7,-0.51,-0.19,-0.19,-0.82,2.79,0.86,0.0,1.0,3.0
2090,27.119769,t,382.0,241.0,101.0,69.0,282.0,212.0,246.0,305.0,8.3,-5.2,0.39,-3.12,-28.25,-38.63,0.69,-0.51,-0.19,-0.19,0.32,1.99,-0.58,0.0,1.0,3.0
2091,27.134803,t,374.0,240.0,100.0,68.0,274.0,206.0,245.0,298.0,8.38,-5.08,0.28,-16.44,-34.13,-43.88,0.69,-0.51,-0.19,-0.19,0.93,0.6,-1.17,0.0,1.0,3.0
2092,27.149853,t,347.0,242.0,106.0,70.0,255.0,207.0,232.0,292.0,8.45,-4.95,0.16,-10.5,-28.62,-41.63,0.69,-0.51,-0.2,-0.2,0.68,0.9,0.75,0.0,1.0,3.0
2093,27.164857,t,332.0,245.0,106.0,69.0,250.0,197.0,215.0,275.0,8.49,-4.9,0.13,-2.81,-24.44,-38.75,0.68,-0.51,-0.2,-0.2,0.4,1.24,0.85,0.0,1.0,3.0
2094,27.179862,t,308.0,254.0,106.0,69.0,242.0,194.0,210.0,270.0,8.52,-4.85,0.1,-0.94,-19.19,-34.56,0.68,-0.5,-0.2,-0.2,-0.05,1.17,1.04,0.0,1.0,3.0
2095,27.194864,t,292.0,267.0,104.0,69.0,237.0,188.0,205.0,263.0,8.57,-4.75,0.07,4.06,-8.44,-32.13,0.68,-0.5,-0.2,-0.2,-1.67,0.69,0.73,0.0,1.0,3.0
2096,27.208867,t,282.0,280.0,106.0,68.0,235.0,190.0,198.0,257.0,8.63,-4.65,0.05,6.31,-10.13,-38.06,0.68,-0.5,-0.2,-0.2,-1.54,0.55,0.56,0.0,1.0,3.0
2097,27.224871,t,284.0,295.0,102.0,68.0,233.0,189.0,200.0,256.0,8.66,-4.58,0.04,3.44,-11.63,-41.19,0.68,-0.5,-0.21,-0.21,-1.12,0.64,0.04,0.0,1.0,3.0
2098,27.238874,t,289.0,303.0,115.0,69.0,230.0,189.0,203.0,258.0,8.7,-4.52,0.02,1.56,-10.75,-44.19,0.68,-0.49,-0.21,-0.21,-1.37,0.42,0.24,0.0,1.0,3.0
2099,27.254877,t,293.0,310.0,119.0,71.0,227.0,189.0,205.0,264.0,8.81,-4.3,0.0,6.12,-7.56,-50.56,0.67,-0.49,-0.21,-0.21,-1.36,0.28,0.73,0.0,1.0,3.0
2100,27.268881,t,315.0,335.0,126.0,72.0,227.0,189.0,214.0,272.0,8.84,-4.22,0.0,11.56,-8.81,-49.69,0.67,-0.49,-0.22,-0.22,-1.66,0.56,1.07,0.0,1.0,3.0
2101,27.284898,t,332.0,341.0,132.0,72.0,234.0,191.0,224.0,282.0,8.88,-4.15,0.0,14.69,-9.56,-47.38,0.67,-0.48,-0.22,-0.22,-1.86,0.66,1.09,0.0,1.0,3.0
2102,27.298911,t,354.0,344.0,136.0,72.0,237.0,191.0,230.0,286.0,8.91,-4.08,0.0,13.31,-9.0,-45.19,0.67,-0.48,-0.22,-0.22,-2.08,0.92,0.48,0.0,1.0,3.0
2103,27.314944,t,366.0,342.0,140.0,73.0,240.0,194.0,234.0,282.0,8.94,-4.01,-0.01,17.56,-8.25,-43.56,0.67,-0.47,-0.22,-0.22,-1.95,0.81,0.21,0.0,1.0,3.0
2104,27.328992,t,374.0,355.0,147.0,74.0,249.0,200.0,250.0,273.0,9.02,-3.84,0.02,40.0,-4.81,-34.44,0.67,-0.47,-0.22,-0.22,-2.2,-1.03,-0.13,0.0,1.0,3.0
2105,27.345035,t,381.0,366.0,144.0,74.0,250.0,196.0,247.0,250.0,9.04,-3.79,0.05,45.5,-4.12,-30.81,0.67,-0.46,-0.22,-0.22,-2.21,-1.5,-0.12,0.0,1.0,3.0
2106,27.359166,t,394.0,374.0,146.0,74.0,257.0,202.0,260.0,250.0,9.07,-3.7,0.09,53.69,-9.13,-26.25,0.68,-0.45,-0.22,-0.22,-2.13,-1.27,0.06,0.0,1.0,3.0
2107,27.374296,t,404.0,381.0,149.0,74.0,253.0,197.0,257.0,242.0,9.09,-3.66,0.11,52.19,-13.56,-24.25,0.68,-0.45,-0.22,-0.22,-1.92,-0.3,0.58,0.0,1.0,3.0
2108,27.389385,t,408.0,392.0,146.0,74.0,257.0,202.0,261.0,245.0,9.12,-3.59,0.12,47.13,-15.63,-22.69,0.68,-0.44,-0.22,-0.22,-1.84,-0.06,0.89,0.0,1.0,3.0
2109,27.404476,t,418.0,400.0,153.0,73.0,257.0,202.0,263.0,251.0,9.13,-3.55,0.12,36.75,-17.37,-21.56,0.68,-0.44,-0.21,-0.21,-1.83,0.27,1.06,0.0,1.0,3.0
2110,27.419607,t,430.0,427.0,191.0,73.0,260.0,208.0,283.0,284.0,9.16,-3.48,0.08,11.44,-20.37,-22.06,0.68,-0.44,-0.21,-0.21,-1.99,0.38,1.34,0.0,1.0,3.0
2111,27.434663,t,465.0,478.0,242.0,77.0,272.0,213.0,306.0,319.0,9.17,-3.45,0.03,-1.0,-46.81,-25.06,0.67,-0.44,-0.21,-0.21,3.62,-0.51,0.41,0.0,1.0,3.0
2112,27.449668,t,509.0,511.0,298.0,78.0,299.0,215.0,332.0,362.0,9.21,-3.36,-0.15,-15.5,-69.87,-29.62,0.67,-0.44,-0.21,-0.21,5.78,-1.58,-1.12,0.0,1.0,3.0
2113,27.464672,t,511.0,511.0,340.0,77.0,323.0,231.0,342.0,398.0,9.22,-3.3,-0.28,-16.69,-76.5,-33.94,0.66,-0.44,-0.21,-0.21,5.24,-1.08,-0.64,0.0,1.0,3.0
2114,27.479674,t,511.0,511.0,366.0,76.0,329.0,237.0,342.0,410.0,9.23,-3.26,-0.39,-2.37,-51.13,-11.5,0.65,-0.44,-0.21,-0.21,1.91,3.72,6.3,0.0,1.0,3.0
2115,27.494666,t,511.0,511.0,396.0,76.0,305.0,241.0,350.0,422.0,9.22,-3.26,-0.55,-9.94,-49.0,14.0,0.65,-0.44,-0.21,-0.21,2.49,2.74,1.74,0.0,1.0,3.0
2116,27.509711,t,511.0,511.0,407.0,75.0,303.0,235.0,363.0,416.0,9.21,-3.3,-0.62,-44.5,-26.19,29.81,0.65,-0.45,-0.21,-0.21,3.11,-1.33,-4.73,0.0,1.0,3.0
2117,27.524712,t,511.0,511.0,422.0,76.0,314.0,241.0,383.0,428.0,9.16,-3.43,-0.66,-48.81,9.31,46.81,0.65,-0.45,-0.21,-0.21,4.77,-5.52,-2.08,0.0,1.0,3.0
2118,27.539717,t,511.0,511.0,394.0,72.0,326.0,234.0,364.0,440.0,9.09,-3.58,-0.78,-30.69,-32.94,52.13,0.65,-0.46,-0.2,-0.2,6.51,-3.48,0.59,0.0,1.0,3.0
2119,27.55472,t,511.0,511.0,373.0,71.0,323.0,226.0,358.0,447.0,9.05,-3.66,-0.82,-22.12,-16.06,50.06,0.65,-0.47,-0.2,-0.2,5.56,1.98,-0.53,0.0,1.0,3.0
2120,27.569723,t,511.0,511.0,362.0,71.0,327.0,226.0,357.0,434.0,9.02,-3.74,-0.81,-7.12,7.62,49.75,0.65,-0.47,-0.2,-0.2,5.55,4.13,-0.34,0.0,1.0,3.0
2121,27.584757,t,506.0,511.0,338.0,73.0,319.0,226.0,347.0,408.0,8.97,-3.89,-0.63,13.56,42.69,17.56,0.65,-0.47,-0.2,-0.2,3.4,3.97,-1.7,0.0,1.0,3.0
2122,27.59976,t,507.0,511.0,338.0,73.0,318.0,234.0,349.0,405.0,8.98,-3.89,-0.57,20.56,31.56,-1.06,0.66,-0.47,-0.2,-0.2,3.36,2.41,-1.77,0.0,1.0,3.0
2123,27.614842,t,510.0,511.0,341.0,72.0,326.0,242.0,355.0,408.0,8.99,-3.87,-0.53,27.75,12.63,-18.44,0.66,-0.47,-0.2,-0.2,3.84,1.28,-1.61,0.0,1.0,3.0
2124,27.628845,t,511.0,511.0,349.0,74.0,330.0,246.0,357.0,416.0,9.01,-3.82,-0.51,34.06,-1.19,-31.87,0.66,-0.46,-0.2,-0.2,4.3,0.65,-1.12,0.0,1.0,3.0
2125,27.64589,t,511.0,511.0,361.0,72.0,356.0,250.0,350.0,437.0,9.09,-3.62,-0.45,26.75,-0.13,-45.94,0.66,-0.45,-0.2,-0.2,2.49,1.93,-1.07,0.0,1.0,3.0
2126,27.658958,t,511.0,511.0,354.0,71.0,364.0,250.0,345.0,439.0,9.12,-3.55,-0.44,16.69,1.12,-45.25,0.66,-0.45,-0.2,-0.2,1.93,1.7,-0.74,0.0,1.0,3.0
2127,27.674016,t,511.0,511.0,344.0,71.0,361.0,249.0,342.0,438.0,9.15,-3.49,-0.43,8.5,3.19,-44.0,0.66,-0.45,-0.2,-0.2,0.89,0.76,-0.56,0.0,1.0,3.0
2128,27.689116,t,511.0,511.0,341.0,68.0,361.0,248.0,341.0,434.0,9.17,-3.42,-0.42,6.0,7.81,-39.38,0.66,-0.44,-0.21,-0.21,-0.78,0.56,-0.64,0.0,1.0,3.0
2129,27.704253,t,502.0,511.0,338.0,78.0,360.0,246.0,347.0,418.0,9.22,-3.3,-0.38,10.31,13.06,-36.56,0.66,-0.44,-0.21,-0.21,-0.99,0.0,-0.92,0.0,1.0,3.0
2130,27.719438,t,487.0,511.0,338.0,79.0,370.0,254.0,363.0,435.0,9.26,-3.19,-0.32,12.69,15.25,-35.19,0.66,-0.43,-0.22,-0.22,-1.26,-0.45,-0.95,0.0,1.0,3.0
2131,27.734544,t,492.0,511.0,330.0,79.0,366.0,247.0,345.0,420.0,9.28,-3.14,-0.29,17.19,14.88,-32.5,0.66,-0.43,-0.22,-0.22,-1.85,-1.25,-0.92,0.0,1.0,3.0
2132,27.749635,t,498.0,511.0,329.0,68.0,362.0,247.0,332.0,425.0,9.31,-3.05,-0.22,23.19,14.19,-24.25,0.66,-0.42,-0.22,-0.22,-2.34,-1.31,-1.04,0.0,1.0,3.0
2133,27.764698,t,507.0,511.0,330.0,69.0,364.0,250.0,330.0,428.0,9.32,-3.02,-0.18,26.94,13.94,-20.37,0.67,-0.42,-0.22,-0.22,-2.98,-1.17,-1.24,0.0,1.0,3.0
2134,27.779758,t,498.0,511.0,328.0,69.0,374.0,258.0,336.0,447.0,9.33,-2.99,-0.15,32.25,9.63,-14.69,0.67,-0.42,-0.22,-0.22,-4.13,-0.22,0.26,0.0,1.0,3.0
2135,27.794786,t,487.0,511.0,331.0,70.0,382.0,261.0,342.0,439.0,9.35,-2.94,-0.06,29.37,8.88,-8.81,0.67,-0.41,-0.22,-0.22,-4.15,-0.17,-1.09,0.0,1.0,3.0
2136,27.808848,t,480.0,511.0,329.0,70.0,379.0,248.0,330.0,420.0,9.35,-2.93,-0.02,33.13,13.25,-6.56,0.67,-0.41,-0.22,-0.22,-4.43,0.28,-1.3,0.0,1.0,3.0
2137,27.824879,t,478.0,511.0,328.0,77.0,380.0,249.0,331.0,418.0,9.36,-2.92,0.01,31.37,14.88,-5.62,0.68,-0.4,-0.22,-0.22,-4.72,1.86,-0.13,0.0,1.0,3.0
2138,27.838941,t,470.0,511.0,332.0,76.0,379.0,248.0,330.0,411.0,9.36,-2.91,0.04,21.62,9.13,-6.69,0.68,-0.4,-0.21,-0.21,-4.51,1.84,-1.96,0.0,1.0,3.0
2139,27.85397,t,479.0,511.0,316.0,78.0,389.0,252.0,332.0,414.0,9.37,-2.86,0.08,7.0,-3.94,-14.38,0.68,-0.4,-0.22,-0.22,-3.49,-2.05,-1.06,0.0,1.0,3.0
2140,27.87006,t,502.0,511.0,312.0,80.0,399.0,254.0,330.0,426.0,9.38,-2.84,0.06,0.37,-13.44,-14.38,0.68,-0.4,-0.22,-0.22,-2.62,-3.6,-1.14,0.0,1.0,3.0
2141,27.884083,t,511.0,511.0,300.0,80.0,414.0,255.0,316.0,430.0,9.39,-2.82,0.03,-4.12,-18.69,-10.0,0.67,-0.4,-0.22,-0.22,-0.53,-4.5,-0.79,0.0,1.0,3.0
2142,27.899266,t,511.0,511.0,288.0,79.0,424.0,250.0,310.0,420.0,9.39,-2.82,0.0,6.0,-10.38,15.0,0.67,-0.4,-0.21,-0.21,-0.86,-3.44,-0.19,0.0,1.0,3.0
2143,27.914356,t,511.0,511.0,264.0,80.0,432.0,250.0,312.0,432.0,9.34,-2.96,0.03,14.38,17.81,41.81,0.68,-0.4,-0.21,-0.21,-2.13,-0.86,-0.25,0.0,1.0,3.0
2144,27.929498,t,511.0,511.0,255.0,79.0,425.0,240.0,297.0,409.0,9.32,-3.04,0.08,15.13,27.56,49.19,0.68,-0.4,-0.21,-0.21,-2.81,0.86,0.05,0.0,1.0,3.0
2145,27.94561,t,488.0,511.0,243.0,80.0,429.0,252.0,306.0,420.0,9.29,-3.12,0.14,6.56,34.88,51.94,0.69,-0.41,-0.2,-0.2,-2.77,0.32,-1.36,0.0,1.0,3.0
2146,27.95963,t,482.0,511.0,223.0,80.0,414.0,244.0,294.0,388.0,9.26,-3.21,0.21,6.31,41.75,53.31,0.69,-0.41,-0.2,-0.2,-2.76,0.19,-1.16,0.0,1.0,3.0
2147,27.974658,t,463.0,511.0,181.0,80.0,416.0,254.0,280.0,378.0,9.16,-3.46,0.4,-13.5,33.81,51.38,0.69,-0.41,-0.2,-0.2,0.38,-2.45,-0.75,0.0,1.0,3.0
2148,27.989661,t,474.0,511.0,163.0,78.0,398.0,243.0,262.0,362.0,9.13,-3.54,0.42,-25.31,22.06,53.31,0.69,-0.42,-0.2,-0.2,1.77,-3.12,-1.07,0.0,1.0,3.0
2149,28.004699,t,479.0,511.0,158.0,78.0,397.0,236.0,253.0,368.0,9.09,-3.64,0.4,-35.88,6.87,60.63,0.69,-0.42,-0.2,-0.2,5.82,-4.56,0.29,0.0,1.0,3.0
2150,28.019726,t,463.0,442.0,142.0,79.0,372.0,217.0,232.0,354.0,8.98,-3.91,0.28,-42.44,-29.37,93.0,0.69,-0.44,-0.18,-0.18,7.94,-4.33,0.59,0.0,1.0,3.0
2151,28.034759,t,429.0,383.0,138.0,79.0,346.0,201.0,220.0,340.0,8.82,-4.27,0.15,-34.0,-21.62,128.19,0.69,-0.45,-0.18,-0.18,7.35,-2.29,0.37,0.0,1.0,3.0
2152,28.049793,t,391.0,361.0,138.0,79.0,325.0,190.0,219.0,312.0,8.71,-4.49,0.11,-26.25,-14.0,143.75,0.69,-0.46,-0.17,-0.17,7.45,-1.05,0.38,0.0,1.0,3.0
2153,28.064826,t,351.0,341.0,132.0,79.0,308.0,184.0,221.0,304.0,8.59,-4.72,0.08,-23.37,-6.69,155.25,0.69,-0.47,-0.16,-0.16,8.06,-0.1,0.15,0.0,1.0,3.0
2154,28.079942,t,334.0,308.0,125.0,70.0,294.0,186.0,241.0,287.0,8.31,-5.19,0.08,-20.44,27.25,164.87,0.7,-0.49,-0.13,-0.13,7.02,2.52,1.02,0.0,1.0,3.0
2155,28.095033,t,330.0,293.0,131.0,69.0,289.0,194.0,251.0,293.0,8.0,-5.65,0.13,-20.37,33.19,161.75,0.7,-0.5,-0.13,-0.13,6.27,2.53,0.16,0.0,1.0,3.0
2156,28.109103,t,329.0,287.0,127.0,71.0,288.0,202.0,258.0,297.0,7.85,-5.86,0.15,-15.25,32.88,150.75,0.7,-0.51,-0.12,-0.12,4.58,4.18,-0.73,0.0,1.0,3.0
2157,28.125107,t,330.0,288.0,125.0,72.0,291.0,208.0,264.0,304.0,7.72,-6.04,0.18,-7.62,26.56,132.69,0.7,-0.51,-0.11,-0.11,3.11,4.81,0.71,0.0,1.0,3.0
2158,28.139251,t,364.0,310.0,122.0,72.0,309.0,226.0,272.0,314.0,7.52,-6.28,0.15,-10.06,-10.38,75.69,0.7,-0.53,-0.11,-0.11,2.28,0.32,0.63,0.0,1.0,3.0
2159,28.15431,t,381.0,313.0,121.0,69.0,316.0,225.0,261.0,307.0,7.47,-6.34,0.11,6.75,-33.63,33.31,0.7,-0.53,-0.11,-0.11,3.44,0.35,1.11,0.0,1.0,3.0
2160,28.169466,t,389.0,316.0,122.0,68.0,322.0,230.0,261.0,308.0,7.43,-6.39,0.07,25.19,-26.12,16.94,0.7,-0.53,-0.1,-0.1,3.93,0.86,1.25,0.0,1.0,3.0
2161,28.184628,t,383.0,310.0,131.0,68.0,324.0,228.0,253.0,314.0,7.42,-6.4,0.15,49.75,0.0,-5.44,0.71,-0.53,-0.1,-0.1,2.41,2.82,1.26,0.0,1.0,3.0
2162,28.199661,t,373.0,310.0,132.0,69.0,312.0,225.0,250.0,310.0,7.43,-6.38,0.22,54.44,9.06,-14.06,0.71,-0.53,-0.11,-0.11,1.59,3.48,1.09,0.0,1.0,3.0
2163,28.214695,t,367.0,300.0,129.0,68.0,304.0,214.0,238.0,303.0,7.46,-6.35,0.3,56.88,13.38,-23.81,0.71,-0.53,-0.11,-0.11,0.94,4.23,1.07,0.0,1.0,3.0
2164,28.229698,t,366.0,301.0,121.0,68.0,299.0,209.0,234.0,296.0,7.49,-6.3,0.39,57.31,14.88,-33.56,0.72,-0.51,-0.11,-0.11,-1.01,6.41,0.31,0.0,1.0,3.0
2165,28.244727,t,362.0,296.0,105.0,68.0,288.0,206.0,222.0,300.0,7.66,-6.09,0.56,24.19,9.0,-63.94,0.72,-0.51,-0.12,-0.12,-1.24,6.33,-0.26,0.0,1.0,3.0
2166,28.259731,t,362.0,307.0,107.0,68.0,285.0,202.0,218.0,298.0,7.74,-5.99,0.58,9.06,7.37,-73.87,0.72,-0.5,-0.12,-0.12,-1.71,6.14,0.57,0.0,1.0,3.0
2167,28.274734,t,357.0,288.0,108.0,69.0,286.0,205.0,222.0,301.0,7.82,-5.87,0.57,-8.69,2.44,-84.37,0.72,-0.5,-0.13,-0.13,-1.62,5.58,0.46,0.0,1.0,3.0
2168,28.289738,t,339.0,260.0,108.0,68.0,265.0,189.0,206.0,282.0,8.14,-5.44,0.47,-36.25,-4.44,-116.62,0.71,-0.49,-0.15,-0.15,-0.73,3.12,1.11,0.0,1.0,3.0
2169,28.305048,t,338.0,259.0,107.0,68.0,252.0,184.0,205.0,280.0,8.25,-5.27,0.43,-37.0,-3.75,-121.62,0.71,-0.49,-0.16,-0.16,-0.87,2.76,0.77,0.0,1.0,3.0
2170,28.319111,t,341.0,250.0,109.0,69.0,251.0,188.0,205.0,281.0,8.36,-5.1,0.38,-42.19,-5.31,-122.31,0.7,-0.49,-0.17,-0.17,-0.99,2.3,0.7,0.0,1.0,3.0
2171,28.334311,t,339.0,244.0,112.0,68.0,246.0,186.0,207.0,283.0,8.46,-4.93,0.33,-48.0,-8.94,-121.56,0.69,-0.48,-0.18,-0.18,-1.2,1.59,0.52,0.0,1.0,3.0
2172,28.349455,t,330.0,270.0,117.0,70.0,236.0,180.0,211.0,276.0,8.66,-4.57,0.22,-41.56,-10.31,-120.19,0.68,-0.48,-0.2,-0.2,-2.1,-0.62,0.56,0.0,1.0,3.0
2173,28.364548,t,336.0,285.0,117.0,69.0,239.0,178.0,210.0,274.0,8.85,-4.22,0.12,-37.19,-10.88,-118.37,0.68,-0.48,-0.21,-0.21,-1.7,-1.92,0.36,0.0,1.0,3.0
2174,28.379624,t,342.0,300.0,115.0,69.0,239.0,173.0,216.0,282.0,8.93,-4.04,0.08,-40.13,-9.88,-114.56,0.68,-0.47,-0.22,-0.22,-1.42,-2.54,-0.45,0.0,1.0,3.0
2175,28.394627,t,357.0,329.0,106.0,72.0,240.0,187.0,237.0,288.0,9.07,-3.72,0.01,-29.19,-6.87,-97.62,0.67,-0.47,-0.23,-0.23,-1.27,-4.18,-1.5,0.0,1.0,3.0
2176,28.409676,t,370.0,351.0,105.0,72.0,240.0,199.0,244.0,293.0,9.12,-3.59,0.0,-10.63,-4.62,-84.06,0.66,-0.46,-0.24,-0.24,-2.65,-4.86,-1.52,0.0,1.0,3.0
2177,28.424705,t,394.0,372.0,106.0,72.0,243.0,206.0,250.0,301.0,9.2,-3.39,0.03,29.19,3.69,-58.69,0.67,-0.46,-0.24,-0.24,-4.18,-4.03,-1.65,0.0,1.0,3.0
2178,28.439794,t,426.0,378.0,110.0,70.0,244.0,209.0,254.0,306.0,9.22,-3.31,0.06,46.06,4.69,-45.94,0.67,-0.45,-0.24,-0.24,-4.16,-3.21,-1.75,0.0,1.0,3.0
2179,28.454824,t,472.0,392.0,112.0,70.0,249.0,214.0,266.0,314.0,9.26,-3.21,0.13,62.13,-0.75,-30.37,0.67,-0.44,-0.24,-0.24,-4.17,-1.66,-1.3,0.0,1.0,3.0
2180,28.46891,t,482.0,390.0,113.0,70.0,251.0,216.0,267.0,318.0,9.28,-3.16,0.15,62.88,-8.19,-29.5,0.67,-0.43,-0.24,-0.24,-4.05,-1.67,-1.11,0.0,1.0,3.0
2181,28.484939,t,481.0,391.0,110.0,70.0,259.0,222.0,275.0,330.0,9.31,-3.06,0.16,59.25,-19.37,-29.0,0.67,-0.43,-0.24,-0.24,-3.63,-0.9,-0.01,0.0,1.0,3.0
2182,28.499023,t,474.0,404.0,114.0,71.0,258.0,209.0,268.0,332.0,9.33,-2.99,0.14,51.31,-28.12,-14.69,0.67,-0.42,-0.23,-0.23,-3.81,0.15,-0.32,0.0,1.0,3.0
2183,28.515089,t,474.0,422.0,129.0,73.0,260.0,202.0,279.0,343.0,9.33,-2.98,0.1,52.38,-36.88,-5.56,0.67,-0.42,-0.23,-0.23,-2.97,1.85,0.35,0.0,1.0,3.0
2184,28.529242,t,492.0,458.0,172.0,77.0,270.0,200.0,300.0,364.0,9.33,-2.98,0.05,57.31,-49.81,0.88,0.67,-0.42,-0.22,-0.22,1.08,2.02,0.91,0.0,1.0,3.0
2185,28.544302,t,511.0,511.0,221.0,80.0,286.0,213.0,319.0,408.0,9.33,-2.99,-0.03,43.13,-99.62,-7.19,0.67,-0.41,-0.21,-0.21,5.24,-0.35,-1.08,0.0,1.0,3.0
2186,28.559392,t,511.0,511.0,259.0,81.0,301.0,227.0,346.0,437.0,9.35,-2.93,-0.31,78.5,-114.44,-43.13,0.66,-0.41,-0.2,-0.2,4.07,-1.05,2.49,0.0,1.0,3.0
2187,28.574465,t,511.0,511.0,319.0,76.0,327.0,234.0,329.0,433.0,9.38,-2.81,-0.51,-26.69,-40.56,-34.63,0.66,-0.41,-0.21,-0.21,2.05,-4.38,3.57,0.0,1.0,3.0
2188,28.589577,t,511.0,511.0,338.0,76.0,314.0,234.0,322.0,447.0,9.37,-2.81,-0.55,-35.56,-14.81,5.87,0.66,-0.41,-0.2,-0.2,0.21,-5.97,-1.01,0.0,1.0,3.0
2189,28.604644,t,511.0,511.0,350.0,75.0,318.0,232.0,345.0,464.0,9.35,-2.9,-0.56,13.63,-14.25,50.06,0.66,-0.42,-0.2,-0.2,4.57,-0.35,-1.75,0.0,1.0,3.0
2190,28.619728,t,511.0,511.0,393.0,74.0,325.0,230.0,368.0,453.0,9.24,-3.22,-0.63,-9.56,-22.0,60.56,0.66,-0.43,-0.19,-0.19,5.77,-2.4,-0.93,0.0,1.0,3.0
2191,28.634732,t,511.0,511.0,394.0,71.0,338.0,227.0,367.0,450.0,9.21,-3.29,-0.69,-9.0,-32.31,46.0,0.65,-0.43,-0.19,-0.19,8.03,-0.98,-0.21,0.0,1.0,3.0
2192,28.648854,t,511.0,511.0,382.0,68.0,342.0,221.0,354.0,450.0,9.18,-3.34,-0.71,-10.75,-11.63,36.19,0.65,-0.43,-0.19,-0.19,7.08,0.97,-1.37,0.0,1.0,3.0
2193,28.664884,t,511.0,511.0,373.0,75.0,355.0,228.0,352.0,439.0,9.15,-3.44,-0.71,-9.06,8.13,30.12,0.66,-0.44,-0.19,-0.19,5.39,2.32,-1.13,0.0,1.0,3.0
2194,28.678916,t,511.0,511.0,349.0,72.0,348.0,224.0,339.0,424.0,9.14,-3.48,-0.62,19.25,27.19,4.06,0.66,-0.43,-0.19,-0.19,4.4,1.46,-1.08,0.0,1.0,3.0
2195,28.693917,t,510.0,511.0,351.0,73.0,357.0,243.0,362.0,429.0,9.14,-3.48,-0.56,33.88,26.25,-2.56,0.66,-0.43,-0.18,-0.18,3.94,0.68,-1.2,0.0,1.0,3.0
2196,28.70942,t,510.0,511.0,350.0,72.0,361.0,242.0,363.0,431.0,9.15,-3.48,-0.5,43.0,20.81,-4.56,0.66,-0.43,-0.18,-0.18,2.77,0.51,-0.62,0.0,1.0,3.0
2197,28.724536,t,511.0,511.0,354.0,72.0,357.0,239.0,352.0,416.0,9.15,-3.47,-0.45,43.94,14.25,-7.44,0.67,-0.42,-0.18,-0.18,2.66,2.45,-1.64,0.0,1.0,3.0
2198,28.739622,t,511.0,511.0,347.0,72.0,367.0,247.0,345.0,432.0,9.17,-3.42,-0.39,20.12,6.31,-22.62,0.67,-0.42,-0.18,-0.18,1.93,1.68,-1.11,0.0,1.0,3.0
2199,28.754625,t,511.0,511.0,342.0,72.0,371.0,250.0,340.0,426.0,9.2,-3.35,-0.35,14.25,8.5,-23.75,0.67,-0.42,-0.18,-0.18,1.38,0.82,-0.95,0.0,1.0,3.0
2200,28.769647,t,511.0,511.0,334.0,72.0,371.0,251.0,329.0,428.0,9.21,-3.32,-0.33,11.56,8.88,-21.69,0.67,-0.41,-0.18,-0.18,0.75,0.38,-0.74,0.0,1.0,3.0
2201,28.784651,t,508.0,511.0,314.0,68.0,374.0,242.0,328.0,413.0,9.24,-3.26,-0.3,3.87,6.69,-16.56,0.67,-0.41,-0.19,-0.19,-0.35,0.51,0.21,0.0,1.0,3.0
2202,28.799654,t,496.0,511.0,308.0,68.0,375.0,239.0,330.0,411.0,9.24,-3.24,-0.29,1.81,6.81,-14.88,0.67,-0.41,-0.19,-0.19,-0.66,0.73,0.12,0.0,1.0,3.0
2203,28.814684,t,478.0,511.0,310.0,68.0,375.0,237.0,330.0,402.0,9.25,-3.22,-0.27,1.94,7.69,-13.88,0.67,-0.41,-0.19,-0.19,-1.38,1.39,-0.95,0.0,1.0,3.0
2204,28.829751,t,471.0,511.0,310.0,73.0,373.0,240.0,327.0,401.0,9.28,-3.14,-0.21,5.62,11.44,-18.69,0.67,-0.41,-0.19,-0.19,-1.97,0.8,-1.02,0.0,1.0,3.0
2205,28.844815,t,469.0,511.0,310.0,73.0,372.0,241.0,323.0,403.0,9.29,-3.11,-0.19,9.38,11.06,-20.69,0.67,-0.4,-0.19,-0.19,-2.2,0.33,-1.2,0.0,1.0,3.0
2206,28.859818,t,467.0,511.0,313.0,73.0,378.0,243.0,323.0,405.0,9.3,-3.07,-0.17,16.69,10.88,-21.81,0.67,-0.4,-0.19,-0.19,-2.76,0.24,-1.05,0.0,1.0,3.0
2207,28.873881,t,466.0,511.0,314.0,73.0,378.0,245.0,324.0,403.0,9.32,-3.04,-0.13,23.31,11.38,-22.44,0.68,-0.4,-0.19,-0.19,-3.66,0.24,-0.66,0.0,1.0,3.0
2208,28.888935,t,471.0,511.0,323.0,74.0,388.0,249.0,331.0,410.0,9.35,-2.92,-0.06,20.62,3.12,-24.44,0.68,-0.39,-0.19,-0.19,-3.98,-0.69,-1.44,0.0,1.0,3.0
2209,28.905016,t,482.0,511.0,325.0,75.0,394.0,252.0,334.0,416.0,9.37,-2.89,-0.05,23.0,-1.06,-23.94,0.68,-0.39,-0.19,-0.19,-3.84,-0.97,-1.78,0.0,1.0,3.0
2210,28.919113,t,492.0,511.0,327.0,78.0,401.0,254.0,336.0,422.0,9.38,-2.85,-0.05,26.56,-4.94,-23.12,0.68,-0.39,-0.19,-0.19,-3.67,-0.91,-1.37,0.0,1.0,3.0
2211,28.934175,t,498.0,511.0,330.0,78.0,400.0,256.0,336.0,425.0,9.39,-2.81,-0.05,27.0,-6.44,-19.0,0.68,-0.38,-0.19,-0.19,-3.13,-0.4,-1.35,0.0,1.0,3.0
2212,28.949322,t,498.0,511.0,326.0,80.0,419.0,258.0,335.0,427.0,9.41,-2.72,-0.01,29.19,-1.0,-16.81,0.68,-0.37,-0.19,-0.19,-2.99,-0.77,-0.67,0.0,1.0,3.0
2213,28.964493,t,499.0,511.0,322.0,81.0,425.0,258.0,335.0,428.0,9.42,-2.7,0.0,23.0,-0.25,-12.88,0.68,-0.37,-0.19,-0.19,-2.31,-2.1,-1.0,0.0,1.0,3.0
2214,28.979554,t,507.0,511.0,317.0,81.0,427.0,258.0,328.0,428.0,9.42,-2.69,0.0,23.5,1.25,-6.44,0.68,-0.37,-0.19,-0.19,-2.2,-2.13,-1.03,0.0,1.0,3.0
2215,28.994623,t,511.0,511.0,294.0,80.0,451.0,262.0,318.0,432.0,9.42,-2.7,0.03,19.12,5.56,6.5,0.68,-0.37,-0.19,-0.19,-1.95,-2.36,-0.86,0.0,1.0,3.0
2216,29.009641,t,511.0,511.0,290.0,80.0,474.0,264.0,318.0,432.0,9.41,-2.72,0.06,13.31,16.75,20.37,0.69,-0.37,-0.19,-0.19,-2.06,-2.36,-0.57,0.0,1.0,3.0
2217,29.024653,t,511.0,511.0,283.0,80.0,500.0,267.0,318.0,432.0,9.39,-2.8,0.13,12.94,22.06,28.62,0.69,-0.37,-0.18,-0.18,-2.07,-2.2,-0.31,0.0,1.0,3.0
2218,29.039669,t,511.0,511.0,254.0,78.0,511.0,270.0,317.0,436.0,9.35,-2.93,0.24,3.31,33.31,45.81,0.69,-0.37,-0.18,-0.18,-1.32,-2.32,-0.23,0.0,1.0,3.0
2219,29.054702,t,511.0,511.0,236.0,76.0,497.0,255.0,298.0,422.0,9.32,-3.02,0.29,-5.69,35.44,54.69,0.69,-0.37,-0.18,-0.18,-0.82,-2.65,-0.63,0.0,1.0,3.0
2220,29.069735,t,511.0,511.0,214.0,77.0,479.0,257.0,288.0,406.0,9.28,-3.13,0.34,-22.0,30.94,75.31,0.7,-0.38,-0.17,-0.17,1.38,-3.51,-0.05,0.0,1.0,3.0
2221,29.084763,t,511.0,511.0,186.0,78.0,476.0,258.0,276.0,403.0,9.19,-3.39,0.4,-32.06,24.19,86.87,0.7,-0.39,-0.17,-0.17,2.35,-3.45,0.64,0.0,1.0,3.0
2222,29.098825,t,481.0,511.0,156.0,80.0,421.0,244.0,242.0,368.0,9.06,-3.72,0.38,-55.5,7.56,110.31,0.7,-0.4,-0.17,-0.17,4.5,-3.21,1.61,0.0,1.0,3.0
2223,29.114829,t,444.0,439.0,138.0,81.0,393.0,232.0,238.0,347.0,8.98,-3.92,0.34,-60.63,2.19,122.0,0.7,-0.41,-0.16,-0.16,6.57,-2.44,1.12,0.0,1.0,3.0
2224,29.128887,t,408.0,387.0,130.0,81.0,357.0,226.0,231.0,319.0,8.88,-4.13,0.29,-64.06,-3.25,145.94,0.7,-0.43,-0.15,-0.15,8.0,-1.15,0.6,0.0,1.0,3.0
2225,29.144921,t,359.0,363.0,126.0,80.0,335.0,213.0,230.0,306.0,8.66,-4.59,0.19,-64.37,-2.5,155.5,0.7,-0.45,-0.14,-0.14,8.43,-0.62,0.08,0.0,1.0,3.0
2226,29.159009,t,325.0,323.0,124.0,80.0,319.0,204.0,242.0,294.0,8.39,-5.07,0.11,-59.25,11.0,164.62,0.7,-0.47,-0.13,-0.13,8.52,-0.19,-0.16,0.0,1.0,3.0
2227,29.175093,t,323.0,295.0,116.0,78.0,300.0,191.0,235.0,278.0,8.24,-5.31,0.09,-50.63,22.37,167.37,0.7,-0.49,-0.12,-0.12,8.29,0.25,-0.23,0.0,1.0,3.0
2228,29.189255,t,324.0,276.0,117.0,70.0,291.0,194.0,241.0,275.0,8.08,-5.54,0.1,-41.31,31.31,167.06,0.7,-0.5,-0.11,-0.11,5.36,2.44,-0.85,0.0,1.0,3.0
2229,29.204379,t,318.0,267.0,122.0,72.0,291.0,199.0,246.0,278.0,7.93,-5.76,0.12,-16.69,28.19,140.69,0.7,-0.5,-0.1,-0.1,3.45,4.41,0.82,0.0,1.0,3.0
2230,29.219467,t,319.0,265.0,120.0,72.0,312.0,218.0,264.0,294.0,7.57,-6.22,0.1,-23.81,-6.56,86.37,0.7,-0.51,-0.09,-0.09,2.34,2.94,-0.63,0.0,1.0,3.0
2231,29.234581,t,336.0,281.0,119.0,70.0,310.0,220.0,263.0,298.0,7.51,-6.3,0.06,-14.5,-21.06,62.25,0.7,-0.52,-0.09,-0.09,2.74,1.61,-0.3,0.0,1.0,3.0
2232,29.249633,t,354.0,294.0,118.0,69.0,319.0,219.0,255.0,303.0,7.46,-6.36,0.02,-1.56,-29.81,43.31,0.7,-0.52,-0.08,-0.08,3.77,0.83,1.03,0.0,1.0,3.0
2233,29.264636,t,374.0,304.0,120.0,69.0,339.0,226.0,250.0,316.0,7.4,-6.43,0.07,39.44,2.87,10.38,0.71,-0.52,-0.08,-0.08,3.45,2.21,1.62,0.0,1.0,3.0
2234,29.279667,t,368.0,300.0,126.0,69.0,338.0,225.0,250.0,310.0,7.39,-6.43,0.14,46.38,12.56,0.19,0.71,-0.51,-0.07,-0.07,2.12,2.51,1.7,0.0,1.0,3.0
2235,29.294697,t,348.0,285.0,129.0,69.0,318.0,218.0,243.0,301.0,7.41,-6.41,0.22,53.94,16.81,-13.38,0.71,-0.51,-0.07,-0.07,1.16,3.05,1.41,0.0,1.0,3.0
2236,29.30973,t,343.0,278.0,127.0,69.0,310.0,213.0,239.0,294.0,7.44,-6.37,0.31,60.44,19.87,-28.37,0.71,-0.5,-0.08,-0.08,-1.14,4.75,0.88,0.0,1.0,3.0
2237,29.324762,t,329.0,274.0,120.0,69.0,294.0,208.0,226.0,282.0,7.61,-6.15,0.57,47.13,18.19,-65.0,0.72,-0.49,-0.08,-0.08,-1.98,5.44,-0.12,0.0,1.0,3.0
2238,29.33882,t,329.0,278.0,114.0,68.0,285.0,204.0,213.0,284.0,7.69,-6.05,0.63,36.63,16.81,-75.19,0.72,-0.49,-0.09,-0.09,-2.21,5.42,-0.22,0.0,1.0,3.0
2239,29.354851,t,336.0,285.0,102.0,69.0,282.0,202.0,208.0,284.0,7.77,-5.93,0.67,24.44,13.81,-83.0,0.72,-0.48,-0.1,-0.1,-2.64,5.57,0.02,0.0,1.0,3.0
2240,29.369885,t,339.0,289.0,104.0,69.0,276.0,197.0,207.0,280.0,7.86,-5.81,0.69,6.56,5.62,-91.69,0.72,-0.48,-0.1,-0.1,-2.78,5.24,0.19,0.0,1.0,3.0
2241,29.383947,t,331.0,260.0,103.0,69.0,258.0,188.0,200.0,276.0,8.05,-5.55,0.69,-21.25,2.75,-115.06,0.72,-0.47,-0.12,-0.12,-1.2,2.86,0.29,0.0,1.0,3.0
2242,29.398966,t,330.0,250.0,102.0,68.0,248.0,185.0,197.0,274.0,8.26,-5.23,0.66,-21.25,2.75,-115.06,0.72,-0.46,-0.13,-0.13,-1.2,2.76,0.35,0.0,1.0,3.0
2243,29.414094,t,332.0,241.0,104.0,69.0,248.0,191.0,202.0,279.0,8.37,-5.06,0.64,-23.06,3.25,-116.25,0.72,-0.46,-0.14,-0.14,-1.35,2.17,0.08,0.0,1.0,3.0
2244,29.429157,t,334.0,229.0,108.0,69.0,240.0,190.0,199.0,271.0,8.46,-4.9,0.62,-28.25,0.88,-115.31,0.71,-0.46,-0.16,-0.16,-1.48,1.14,0.34,0.0,1.0,3.0
2245,29.44524,t,335.0,251.0,110.0,69.0,242.0,182.0,210.0,280.0,8.65,-4.57,0.55,-31.5,-6.75,-113.12,0.71,-0.45,-0.17,-0.17,-1.71,0.66,0.18,0.0,1.0,3.0
2246,29.460282,t,344.0,262.0,111.0,68.0,234.0,175.0,205.0,274.0,8.74,-4.4,0.51,-34.25,-9.81,-111.94,0.7,-0.44,-0.18,-0.18,-1.65,0.25,-0.54,0.0,1.0,3.0
2247,29.474313,t,345.0,270.0,112.0,69.0,230.0,178.0,206.0,278.0,8.9,-4.08,0.43,-35.06,-11.75,-107.19,0.7,-0.44,-0.19,-0.19,-1.29,-0.01,-0.66,0.0,1.0,3.0
2248,29.48941,t,352.0,301.0,114.0,77.0,228.0,180.0,217.0,295.0,9.04,-3.77,0.33,-36.19,-18.06,-96.94,0.69,-0.44,-0.2,-0.2,-0.4,-0.62,-1.09,0.0,1.0,3.0
2249,29.504532,t,362.0,307.0,119.0,78.0,228.0,174.0,213.0,292.0,9.1,-3.64,0.28,-35.56,-20.94,-86.87,0.69,-0.43,-0.21,-0.21,-0.46,-0.9,-0.7,0.0,1.0,3.0
2250,29.519593,t,368.0,318.0,120.0,79.0,231.0,174.0,215.0,305.0,9.14,-3.52,0.23,-32.31,-19.31,-76.5,0.68,-0.43,-0.22,-0.22,-2.03,-1.98,-0.52,0.0,1.0,3.0
2251,29.534664,t,372.0,323.0,118.0,79.0,232.0,180.0,216.0,308.0,9.22,-3.22,0.13,-18.12,-9.25,-57.0,0.68,-0.43,-0.23,-0.23,-2.48,-2.51,-0.45,0.0,1.0,3.0
2252,29.549669,t,382.0,338.0,112.0,78.0,238.0,186.0,222.0,313.0,9.28,-3.14,0.11,-14.44,-7.75,-50.31,0.67,-0.43,-0.23,-0.23,-2.38,-2.88,-0.54,0.0,1.0,3.0
2253,29.564727,t,388.0,350.0,112.0,79.0,242.0,191.0,230.0,316.0,9.31,-3.07,0.09,-14.63,-5.31,-44.56,0.67,-0.43,-0.23,-0.23,-2.14,-3.38,-0.89,0.0,1.0,3.0
2254,29.579771,t,390.0,354.0,110.0,78.0,240.0,199.0,238.0,313.0,9.33,-3.01,0.08,-17.31,-2.0,-32.06,0.67,-0.43,-0.24,-0.24,-2.5,-3.13,-0.89,0.0,1.0,3.0
2255,29.594785,t,396.0,376.0,113.0,75.0,244.0,208.0,246.0,322.0,9.37,-2.89,0.06,-11.63,4.31,-19.37,0.67,-0.42,-0.24,-0.24,-3.91,-1.95,-0.6,0.0,1.0,3.0
2256,29.609817,t,390.0,370.0,118.0,74.0,249.0,215.0,251.0,326.0,9.37,-2.86,0.06,-2.37,3.44,-14.81,0.67,-0.42,-0.24,-0.24,-4.04,-1.45,-0.45,0.0,1.0,3.0
2257,29.624876,t,400.0,385.0,125.0,74.0,253.0,219.0,255.0,330.0,9.38,-2.85,0.06,3.69,-2.5,-10.88,0.67,-0.42,-0.24,-0.24,-3.62,-0.7,-0.52,0.0,1.0,3.0
2258,29.639052,t,403.0,405.0,150.0,72.0,252.0,216.0,254.0,337.0,9.38,-2.83,0.05,11.06,-9.44,-8.13,0.67,-0.42,-0.24,-0.24,-3.32,1.0,0.48,0.0,1.0,3.0
2259,29.655071,t,413.0,485.0,214.0,77.0,264.0,220.0,290.0,362.0,9.39,-2.81,-0.03,24.12,-39.44,-2.94,0.66,-0.42,-0.24,-0.24,-0.89,0.94,0.5,0.0,1.0,3.0
2260,29.669144,t,465.0,511.0,262.0,82.0,289.0,219.0,318.0,398.0,9.39,-2.8,-0.13,3.0,-58.19,-8.81,0.66,-0.42,-0.24,-0.24,5.44,-3.71,-2.71,0.0,1.0,3.0
2261,29.684231,t,507.0,511.0,318.0,80.0,314.0,235.0,336.0,424.0,9.4,-2.76,-0.24,12.69,-75.81,-21.56,0.66,-0.42,-0.23,-0.23,6.9,-3.86,-3.03,0.0,1.0,3.0
2262,29.699453,t,511.0,511.0,375.0,78.0,357.0,250.0,338.0,478.0,9.42,-2.68,-0.42,55.5,-62.25,-26.94,0.65,-0.41,-0.22,-0.22,1.81,-6.88,-1.48,0.0,1.0,3.0
2263,29.714592,t,511.0,511.0,392.0,75.0,338.0,242.0,328.0,446.0,9.41,-2.68,-0.49,20.87,-47.13,33.31,0.65,-0.41,-0.22,-0.22,0.42,1.88,0.15,0.0,1.0,3.0
2264,29.729667,t,511.0,511.0,408.0,74.0,328.0,241.0,361.0,460.0,9.36,-2.83,-0.6,7.25,-30.81,57.63,0.65,-0.42,-0.21,-0.21,2.5,3.84,-1.91,0.0,1.0,3.0
2265,29.744671,t,511.0,511.0,437.0,74.0,337.0,246.0,374.0,470.0,9.33,-2.94,-0.65,-11.19,-14.56,69.12,0.65,-0.42,-0.2,-0.2,8.21,-2.0,-0.33,0.0,1.0,3.0
2266,29.759735,t,511.0,511.0,450.0,69.0,363.0,247.0,390.0,496.0,9.26,-3.14,-0.71,-18.69,-26.75,57.31,0.65,-0.43,-0.2,-0.2,8.59,-3.4,-1.1,0.0,1.0,3.0
2267,29.774768,t,511.0,511.0,418.0,70.0,378.0,243.0,389.0,511.0,9.23,-3.2,-0.75,-31.5,1.06,30.5,0.65,-0.44,-0.2,-0.2,6.35,1.22,-1.6,0.0,1.0,3.0
2268,29.78883,t,511.0,511.0,402.0,73.0,389.0,240.0,381.0,509.0,9.2,-3.29,-0.76,-23.56,12.25,31.69,0.65,-0.44,-0.2,-0.2,5.77,2.6,-1.43,0.0,1.0,3.0
2269,29.804839,t,511.0,511.0,400.0,72.0,386.0,240.0,386.0,496.0,9.19,-3.33,-0.73,-8.5,21.31,24.62,0.65,-0.44,-0.2,-0.2,5.11,3.17,-1.9,0.0,1.0,3.0
2270,29.819878,t,511.0,511.0,407.0,73.0,393.0,259.0,406.0,507.0,9.19,-3.35,-0.65,24.5,17.19,-2.19,0.66,-0.44,-0.2,-0.2,4.75,1.08,-1.54,0.0,1.0,3.0
2271,29.834911,t,511.0,511.0,425.0,72.0,405.0,270.0,407.0,508.0,9.2,-3.33,-0.61,41.06,8.69,-10.88,0.66,-0.43,-0.2,-0.2,4.44,1.66,-0.89,0.0,1.0,3.0
2272,29.848942,t,511.0,511.0,432.0,71.0,394.0,262.0,392.0,490.0,9.21,-3.31,-0.58,52.31,2.69,-23.25,0.66,-0.43,-0.19,-0.19,3.75,2.22,-1.11,0.0,1.0,3.0
2273,29.863946,t,511.0,511.0,424.0,71.0,398.0,265.0,394.0,507.0,9.25,-3.19,-0.49,29.62,1.62,-33.44,0.66,-0.42,-0.19,-0.19,2.82,2.21,-0.59,0.0,1.0,3.0
2274,29.878978,t,511.0,511.0,412.0,68.0,397.0,265.0,392.0,503.0,9.27,-3.13,-0.48,17.37,1.94,-37.0,0.66,-0.42,-0.2,-0.2,2.54,1.86,-0.51,0.0,1.0,3.0
2275,29.894982,t,511.0,511.0,405.0,68.0,398.0,262.0,389.0,492.0,9.3,-3.07,-0.47,9.31,3.94,-38.56,0.66,-0.41,-0.2,-0.2,1.44,1.4,-0.31,0.0,1.0,3.0
2276,29.909041,t,511.0,511.0,401.0,68.0,392.0,260.0,387.0,486.0,9.32,-3.01,-0.44,5.31,9.5,-38.63,0.66,-0.41,-0.2,-0.2,-0.13,0.95,-0.83,0.0,1.0,3.0
2277,29.924161,t,511.0,511.0,392.0,68.0,387.0,260.0,381.0,462.0,9.38,-2.82,-0.4,8.88,9.88,-39.25,0.66,-0.4,-0.21,-0.21,-0.56,0.7,-0.5,0.0,1.0,3.0
2278,29.939246,t,511.0,511.0,394.0,68.0,385.0,259.0,381.0,461.0,9.4,-2.75,-0.38,8.94,10.5,-40.44,0.66,-0.4,-0.21,-0.21,-0.71,0.32,-0.5,0.0,1.0,3.0
2279,29.954389,t,511.0,511.0,396.0,68.0,385.0,261.0,383.0,464.0,9.42,-2.69,-0.36,8.69,11.56,-40.5,0.66,-0.4,-0.21,-0.21,-1.04,-0.04,-0.64,0.0,1.0,3.0
2280,29.969522,t,511.0,511.0,398.0,70.0,392.0,270.0,394.0,475.0,9.44,-2.63,-0.33,11.56,14.0,-36.0,0.66,-0.39,-0.22,-0.22,-2.73,-0.75,-0.87,0.0,1.0,3.0
2281,29.984608,t,511.0,511.0,402.0,68.0,390.0,273.0,386.0,473.0,9.49,-2.45,-0.24,21.06,12.63,-34.0,0.66,-0.39,-0.22,-0.22,-3.29,-0.83,-0.83,0.0,1.0,3.0
2282,29.999638,t,511.0,511.0,403.0,69.0,405.0,280.0,402.0,497.0,9.5,-2.4,-0.21,23.19,10.44,-31.94,0.66,-0.38,-0.22,-0.22,-3.64,-0.83,-0.74,0.0,1.0,3.0
2283,30.014696,t,511.0,511.0,402.0,69.0,404.0,278.0,405.0,506.0,9.51,-2.35,-0.19,24.19,7.94,-29.81,0.66,-0.38,-0.22,-0.22,-4.19,-0.84,-0.35,0.0,1.0,3.0
2284,30.029725,t,511.0,511.0,412.0,69.0,402.0,267.0,394.0,476.0,9.53,-2.27,-0.15,21.75,5.12,-24.37,0.67,-0.37,-0.22,-0.22,-4.7,0.0,-1.0,0.0,1.0,3.0
2285,30.044783,t,511.0,511.0,417.0,71.0,414.0,272.0,403.0,486.0,9.54,-2.23,-0.14,14.94,4.75,-23.44,0.67,-0.37,-0.22,-0.22,-4.36,-0.71,-1.32,0.0,1.0,3.0
2286,30.059786,t,511.0,511.0,409.0,74.0,419.0,269.0,401.0,493.0,9.56,-2.16,-0.12,7.44,1.69,-23.69,0.67,-0.37,-0.22,-0.22,-3.82,-2.26,-1.33,0.0,1.0,3.0
2287,30.074819,t,511.0,511.0,391.0,80.0,460.0,262.0,402.0,497.0,9.57,-2.1,-0.14,-2.81,-8.13,-15.0,0.67,-0.37,-0.22,-0.22,-1.99,-5.91,0.01,0.0,1.0,3.0
2288,30.088846,t,511.0,511.0,386.0,79.0,486.0,258.0,400.0,508.0,9.57,-2.09,-0.16,-2.81,-10.63,-5.56,0.66,-0.37,-0.22,-0.22,-1.28,-5.59,0.18,0.0,1.0,3.0
2289,30.104875,t,511.0,511.0,382.0,79.0,490.0,252.0,387.0,501.0,9.57,-2.1,-0.17,3.56,-6.5,5.87,0.67,-0.37,-0.22,-0.22,-0.96,-4.79,0.27,0.0,1.0,3.0
2290,30.118878,t,511.0,511.0,374.0,78.0,497.0,251.0,379.0,490.0,9.57,-2.13,-0.16,4.25,19.12,27.87,0.67,-0.37,-0.22,-0.22,-0.98,-0.92,-0.1,0.0,1.0,3.0
2291,30.133939,t,511.0,511.0,356.0,77.0,457.0,264.0,358.0,471.0,9.52,-2.31,0.01,-2.69,50.25,46.81,0.67,-0.38,-0.22,-0.22,-1.89,0.74,-0.18,0.0,1.0,3.0
2292,30.148944,t,511.0,511.0,327.0,77.0,457.0,263.0,353.0,459.0,9.5,-2.4,0.11,-9.75,64.31,50.13,0.68,-0.38,-0.22,-0.22,-2.53,0.99,-0.4,0.0,1.0,3.0
2293,30.165008,t,511.0,511.0,315.0,77.0,458.0,264.0,348.0,426.0,9.48,-2.48,0.22,-15.81,72.69,50.25,0.68,-0.38,-0.22,-0.22,-3.63,0.22,-1.19,0.0,1.0,3.0
2294,30.179141,t,511.0,511.0,304.0,77.0,466.0,266.0,342.0,423.0,9.43,-2.64,0.43,-28.56,54.0,47.19,0.69,-0.39,-0.23,-0.23,-2.92,-0.57,-1.7,0.0,1.0,3.0
2295,30.194286,t,498.0,511.0,272.0,79.0,453.0,261.0,319.0,405.0,9.38,-2.8,0.55,-34.88,41.31,47.5,0.69,-0.39,-0.23,-0.23,-2.13,0.04,-1.42,0.0,1.0,3.0
2296,30.209407,t,500.0,511.0,241.0,78.0,452.0,253.0,298.0,399.0,9.35,-2.88,0.58,-48.13,31.19,48.38,0.69,-0.4,-0.23,-0.23,-1.34,0.07,-1.58,0.0,1.0,3.0
2297,30.224568,t,491.0,511.0,210.0,77.0,469.0,256.0,295.0,407.0,9.29,-3.07,0.58,-75.06,20.44,56.94,0.69,-0.41,-0.23,-0.23,-0.06,-2.3,-0.93,0.0,1.0,3.0
2298,30.239637,t,493.0,511.0,195.0,76.0,474.0,253.0,284.0,418.0,9.25,-3.18,0.56,-88.25,15.19,64.5,0.69,-0.42,-0.24,-0.24,0.68,-4.27,-0.44,0.0,1.0,3.0
2299,30.25464,t,499.0,460.0,161.0,77.0,474.0,226.0,248.0,379.0,9.16,-3.45,0.49,-94.06,11.06,86.31,0.68,-0.44,-0.24,-0.24,2.63,-4.9,-0.02,0.0,1.0,3.0
2300,30.269673,t,474.0,410.0,146.0,78.0,468.0,216.0,234.0,360.0,9.1,-3.62,0.45,-91.37,10.44,99.87,0.68,-0.46,-0.23,-0.23,4.71,-5.03,0.69,0.0,1.0,3.0
2301,30.284702,t,434.0,376.0,141.0,80.0,431.0,209.0,224.0,337.0,9.02,-3.8,0.41,-73.56,9.25,128.25,0.68,-0.48,-0.24,-0.24,5.51,-4.56,0.41,0.0,1.0,3.0
2302,30.299719,t,403.0,342.0,138.0,80.0,398.0,204.0,218.0,324.0,8.84,-4.22,0.34,-64.37,6.56,140.5,0.68,-0.49,-0.23,-0.23,6.37,-4.29,0.19,0.0,1.0,3.0
2303,30.314723,t,354.0,318.0,132.0,79.0,348.0,200.0,216.0,295.0,8.72,-4.46,0.31,-52.31,2.69,151.81,0.68,-0.49,-0.22,-0.22,8.35,-2.7,-0.42,0.0,1.0,3.0
2304,30.329766,t,299.0,279.0,119.0,76.0,315.0,186.0,213.0,259.0,8.46,-4.94,0.25,-20.5,10.88,167.5,0.69,-0.52,-0.21,-0.21,9.01,1.15,0.45,0.0,1.0,3.0
2305,30.344769,t,292.0,266.0,113.0,76.0,308.0,189.0,214.0,252.0,8.16,-5.43,0.27,-10.13,20.44,169.37,0.69,-0.53,-0.2,-0.2,7.82,2.95,0.8,0.0,1.0,3.0
2306,30.360803,t,278.0,264.0,113.0,77.0,302.0,187.0,220.0,247.0,8.0,-5.66,0.3,-2.56,27.19,166.31,0.69,-0.54,-0.19,-0.19,6.06,3.36,0.35,0.0,1.0,3.0
2307,30.374806,t,276.0,261.0,117.0,76.0,294.0,191.0,228.0,248.0,7.84,-6.03,0.34,-1.5,7.19,125.75,0.7,-0.55,-0.17,-0.17,2.45,3.3,-0.52,0.0,1.0,3.0
2308,30.389864,t,298.0,270.0,127.0,69.0,306.0,202.0,236.0,261.0,7.61,-6.16,0.33,-0.37,-23.37,70.75,0.7,-0.56,-0.17,-0.17,2.9,2.86,-0.77,0.0,1.0,3.0
2309,30.404896,t,313.0,284.0,126.0,69.0,310.0,206.0,241.0,272.0,7.49,-6.31,0.27,5.31,-30.12,47.63,0.7,-0.56,-0.16,-0.16,3.16,2.65,-0.55,0.0,1.0,3.0
2310,30.418961,t,341.0,302.0,126.0,69.0,319.0,213.0,234.0,292.0,7.46,-6.35,0.24,12.13,-31.75,29.19,0.7,-0.56,-0.16,-0.16,2.89,1.58,0.75,0.0,1.0,3.0
2311,30.435015,t,364.0,313.0,136.0,68.0,332.0,219.0,240.0,303.0,7.44,-6.37,0.23,21.12,-27.94,16.19,0.7,-0.56,-0.16,-0.16,2.24,1.49,1.92,0.0,1.0,3.0
2312,30.449157,t,359.0,307.0,141.0,69.0,340.0,218.0,243.0,311.0,7.43,-6.39,0.26,57.81,-14.19,-3.25,0.7,-0.56,-0.15,-0.15,0.14,2.32,1.53,0.0,1.0,3.0
2313,30.465212,t,352.0,307.0,148.0,69.0,349.0,213.0,243.0,303.0,7.45,-6.36,0.37,67.94,-8.63,-14.56,0.7,-0.55,-0.15,-0.15,-0.23,3.01,0.96,0.0,1.0,3.0
2314,30.479326,t,350.0,309.0,157.0,68.0,341.0,214.0,241.0,308.0,7.48,-6.32,0.45,75.5,-2.25,-25.5,0.71,-0.55,-0.15,-0.15,-0.6,3.79,0.64,0.0,1.0,3.0
2315,30.494438,t,354.0,315.0,140.0,69.0,335.0,225.0,246.0,318.0,7.56,-6.21,0.64,76.75,9.81,-41.13,0.71,-0.54,-0.16,-0.16,-1.74,4.91,1.43,0.0,1.0,3.0
2316,30.509541,t,370.0,314.0,129.0,68.0,326.0,216.0,237.0,318.0,7.61,-6.14,0.72,66.62,9.31,-48.44,0.72,-0.53,-0.16,-0.16,-1.71,5.27,1.05,0.0,1.0,3.0
2317,30.524602,t,388.0,334.0,108.0,69.0,319.0,216.0,230.0,323.0,7.74,-5.95,0.82,32.88,2.69,-69.75,0.72,-0.52,-0.16,-0.16,-1.78,5.56,0.04,0.0,1.0,3.0
