index,time,type,FSR1,FSR2,FSR3,FSR4,FSR5,FSR6,FSR7,FSR8,GravX,GravY,GravZ,GyroX,GyroY,GyroZ,QuatW,QuatX,QuatY,QuatZ,LiAccX,LiAccY,LiAccZ,GyroCal,AccelCal,MagCal
2929,39.70584,t,511.0,511.0,408.0,78.0,371.0,287.0,457.0,511.0,9.66,-1.64,-0.35,34.06,4.62,1.31,0.25,0.62,0.65,0.65,0.25,0.48,-0.55,0.0,1.0,3.0
2930,39.718841,t,511.0,511.0,408.0,78.0,373.0,300.0,478.0,511.0,9.66,-1.62,-0.34,33.31,3.62,1.25,0.25,0.62,0.65,0.65,0.31,0.58,-0.57,0.0,1.0,3.0
2931,39.734844,t,511.0,511.0,403.0,79.0,360.0,283.0,438.0,511.0,9.66,-1.61,-0.34,32.13,5.25,1.44,0.25,0.62,0.65,0.65,0.24,0.48,-0.61,0.0,1.0,3.0
2932,39.748847,t,511.0,511.0,400.0,80.0,362.0,279.0,436.0,511.0,9.66,-1.6,-0.33,30.75,6.12,1.87,0.24,0.62,0.65,0.65,0.14,0.41,-0.55,0.0,1.0,3.0
2933,39.764881,t,511.0,511.0,398.0,79.0,356.0,275.0,415.0,511.0,9.66,-1.6,-0.32,29.56,6.37,2.62,0.24,0.62,0.65,0.65,0.19,0.39,-0.43,0.0,1.0,3.0
2934,39.778884,t,511.0,511.0,392.0,78.0,351.0,272.0,402.0,511.0,9.66,-1.6,-0.3,26.19,7.69,4.62,0.24,0.62,0.65,0.65,0.26,0.49,-0.47,0.0,1.0,3.0
2935,39.793939,t,511.0,511.0,380.0,78.0,339.0,269.0,391.0,511.0,9.66,-1.61,-0.28,25.0,5.75,6.62,0.24,0.63,0.66,0.66,0.24,0.48,-0.36,0.0,1.0,3.0
2936,39.808997,t,511.0,511.0,381.0,78.0,341.0,266.0,388.0,511.0,9.66,-1.61,-0.27,22.56,5.62,7.56,0.23,0.63,0.66,0.66,0.1,0.5,-0.59,0.0,1.0,3.0
2937,39.82403,t,511.0,511.0,376.0,77.0,330.0,262.0,381.0,511.0,9.66,-1.61,-0.27,20.94,6.94,8.44,0.23,0.63,0.66,0.66,-0.01,0.76,-0.44,0.0,1.0,3.0
2938,39.839071,t,511.0,511.0,368.0,78.0,328.0,268.0,391.0,511.0,9.66,-1.63,-0.24,16.94,7.94,10.31,0.23,0.63,0.66,0.66,-0.01,0.87,-0.38,0.0,1.0,3.0
2939,39.854206,t,511.0,511.0,358.0,78.0,315.0,255.0,370.0,502.0,9.65,-1.67,-0.21,9.06,7.37,11.56,0.23,0.63,0.66,0.66,0.27,0.66,-0.68,0.0,1.0,3.0
2940,39.869255,t,511.0,511.0,356.0,79.0,314.0,254.0,361.0,504.0,9.65,-1.68,-0.21,5.12,7.12,11.38,0.23,0.62,0.66,0.66,0.28,-0.2,-1.06,0.0,1.0,3.0
2941,39.884352,t,511.0,511.0,349.0,78.0,313.0,251.0,358.0,486.0,9.65,-1.7,-0.2,0.0,9.56,11.56,0.23,0.62,0.66,0.66,0.2,-0.61,-1.21,0.0,1.0,3.0
2942,39.899436,t,495.0,511.0,340.0,78.0,323.0,260.0,361.0,502.0,9.64,-1.76,-0.14,0.0,13.0,12.69,0.23,0.62,0.66,0.66,-0.24,-1.37,-1.31,0.0,1.0,3.0
2943,39.914536,t,482.0,511.0,319.0,78.0,307.0,245.0,336.0,466.0,9.64,-1.78,-0.12,1.06,13.13,14.81,0.23,0.62,0.67,0.67,-0.28,-1.85,-1.14,0.0,1.0,3.0
2944,39.929596,t,463.0,511.0,314.0,77.0,306.0,242.0,322.0,457.0,9.63,-1.81,-0.1,1.62,12.38,17.69,0.23,0.62,0.67,0.67,-0.1,-2.07,-1.16,0.0,1.0,3.0
2945,39.944648,t,457.0,511.0,300.0,77.0,302.0,240.0,316.0,447.0,9.63,-1.84,-0.08,2.5,12.69,20.75,0.22,0.62,0.67,0.67,0.21,-2.57,-1.04,0.0,1.0,3.0
2946,39.959703,t,445.0,471.0,285.0,77.0,304.0,237.0,306.0,429.0,9.61,-1.93,-0.02,1.94,17.37,28.56,0.22,0.62,0.67,0.67,0.17,-3.05,-1.05,0.0,1.0,3.0
2947,39.974759,t,434.0,404.0,249.0,78.0,301.0,229.0,283.0,399.0,9.58,-2.05,0.05,1.31,26.06,39.88,0.22,0.61,0.67,0.67,-0.24,-4.11,-1.48,0.0,1.0,3.0
2948,39.989764,t,423.0,387.0,230.0,79.0,301.0,230.0,272.0,383.0,9.57,-2.13,0.1,6.62,28.44,47.81,0.21,0.6,0.68,0.68,-0.73,-4.58,-1.74,0.0,1.0,3.0
2949,40.004767,t,411.0,369.0,216.0,79.0,298.0,227.0,247.0,370.0,9.52,-2.33,0.21,24.94,30.69,63.69,0.21,0.6,0.68,0.68,-1.38,-4.36,-1.78,0.0,1.0,3.0
2950,40.019009,t,405.0,364.0,199.0,79.0,297.0,222.0,240.0,356.0,9.49,-2.44,0.27,36.5,25.31,70.94,0.2,0.6,0.69,0.69,-0.91,-4.33,-1.82,0.0,1.0,3.0
2951,40.035062,t,399.0,362.0,188.0,76.0,290.0,218.0,230.0,338.0,9.45,-2.57,0.32,49.69,21.25,78.94,0.2,0.59,0.69,0.69,-0.94,-4.05,-1.75,0.0,1.0,3.0
2952,40.049188,t,387.0,349.0,176.0,78.0,297.0,224.0,221.0,340.0,9.36,-2.85,0.44,75.44,15.56,94.56,0.17,0.59,0.71,0.71,0.05,-2.3,-0.7,0.0,1.0,3.0
2953,40.064271,t,394.0,344.0,172.0,78.0,291.0,215.0,212.0,312.0,9.25,-3.17,0.59,94.37,13.81,105.37,0.16,0.58,0.71,0.71,-0.16,-1.23,-1.36,0.0,1.0,3.0
2954,40.079359,t,374.0,348.0,179.0,78.0,294.0,215.0,210.0,306.0,9.19,-3.33,0.66,103.31,5.69,107.44,0.15,0.58,0.72,0.72,-0.25,-0.83,-1.6,0.0,1.0,3.0
2955,40.094559,t,356.0,349.0,179.0,75.0,298.0,213.0,211.0,301.0,9.13,-3.48,0.72,107.69,-3.87,107.87,0.13,0.58,0.72,0.72,0.22,-1.23,-1.93,0.0,1.0,3.0
2956,40.109645,t,346.0,348.0,174.0,76.0,300.0,214.0,210.0,292.0,9.07,-3.94,0.81,113.94,-40.38,109.5,0.09,0.58,0.73,0.73,1.91,-3.82,-0.68,0.0,1.0,3.0
2957,40.12465,t,355.0,334.0,164.0,76.0,329.0,217.0,213.0,304.0,8.86,-4.1,0.8,102.69,-48.38,115.31,0.08,0.58,0.73,0.73,2.52,-4.03,-1.04,0.0,1.0,3.0
2958,40.139651,t,364.0,312.0,157.0,71.0,330.0,218.0,216.0,312.0,8.78,-4.28,0.8,96.19,-50.0,125.81,0.07,0.58,0.73,0.73,2.91,-3.75,-1.21,0.0,1.0,3.0
2959,40.154685,t,378.0,311.0,153.0,72.0,342.0,222.0,233.0,324.0,8.68,-4.48,0.8,89.5,-42.63,148.12,0.04,0.58,0.73,0.73,3.24,-1.77,-0.72,0.0,1.0,3.0
2960,40.16975,t,394.0,312.0,157.0,72.0,367.0,224.0,242.0,339.0,8.45,-4.9,0.82,89.69,-39.56,155.62,0.02,0.58,0.74,0.74,3.38,-0.85,-0.52,0.0,1.0,3.0
2961,40.184808,t,412.0,336.0,159.0,72.0,416.0,244.0,280.0,361.0,8.18,-5.32,0.87,82.81,-35.63,153.56,0.01,-0.57,-0.74,-0.74,2.42,0.31,0.33,0.0,1.0,3.0
2962,40.198899,t,440.0,362.0,167.0,72.0,420.0,240.0,276.0,367.0,8.05,-5.51,0.9,76.62,-30.31,146.56,0.02,-0.57,-0.74,-0.74,2.65,0.39,0.64,0.0,1.0,3.0
2963,40.214958,t,452.0,390.0,172.0,72.0,447.0,250.0,290.0,368.0,7.92,-5.69,0.93,67.19,-27.87,138.31,0.05,-0.56,-0.74,-0.74,1.31,-1.39,0.81,0.0,1.0,3.0
2964,40.228961,t,463.0,416.0,175.0,72.0,442.0,247.0,294.0,371.0,7.66,-6.19,1.05,65.62,-19.25,133.81,0.08,-0.56,-0.74,-0.74,0.53,-2.2,0.79,0.0,1.0,3.0
2965,40.244444,t,478.0,445.0,180.0,70.0,503.0,267.0,326.0,385.0,7.38,-6.36,1.09,62.88,-23.44,137.56,0.09,-0.55,-0.74,-0.74,0.69,-1.8,0.6,0.0,1.0,3.0
2966,40.259506,t,473.0,455.0,176.0,70.0,511.0,275.0,336.0,394.0,7.23,-6.52,1.12,59.38,-28.37,140.5,0.11,-0.55,-0.74,-0.74,0.35,-0.04,-0.78,0.0,1.0,3.0
2967,40.274564,t,489.0,458.0,172.0,69.0,505.0,267.0,335.0,392.0,6.92,-6.84,1.14,46.31,-42.25,137.94,0.13,-0.54,-0.74,-0.74,0.05,0.27,-1.07,0.0,1.0,3.0
2968,40.289622,t,495.0,462.0,166.0,69.0,498.0,284.0,365.0,427.0,6.63,-7.14,1.09,29.19,-56.19,129.12,0.15,-0.54,-0.73,-0.73,0.29,1.34,-1.33,0.0,1.0,3.0
2969,40.306655,t,511.0,469.0,155.0,69.0,511.0,280.0,368.0,416.0,6.48,-7.27,1.06,23.37,-57.81,124.44,0.16,-0.54,-0.73,-0.73,0.21,1.75,-0.81,0.0,1.0,3.0
2970,40.319688,t,511.0,474.0,154.0,69.0,511.0,288.0,376.0,422.0,6.34,-7.4,1.01,14.63,-61.69,114.5,0.18,-0.54,-0.72,-0.72,0.32,1.52,0.07,0.0,1.0,3.0
2971,40.334719,t,511.0,486.0,150.0,68.0,511.0,292.0,374.0,442.0,6.07,-7.64,0.92,12.88,-59.25,109.37,0.19,-0.54,-0.71,-0.71,0.07,1.36,0.23,0.0,1.0,3.0
2972,40.349773,t,511.0,488.0,150.0,69.0,511.0,299.0,377.0,427.0,5.94,-7.74,0.88,10.88,-57.31,104.56,0.2,-0.54,-0.71,-0.71,-0.05,1.15,0.12,0.0,1.0,3.0
2973,40.364777,t,511.0,479.0,147.0,69.0,511.0,303.0,375.0,433.0,5.82,-7.84,0.83,9.13,-58.31,100.56,0.22,-0.54,-0.7,-0.7,-0.14,1.04,-0.22,0.0,1.0,3.0
2974,40.379778,t,511.0,461.0,145.0,69.0,511.0,317.0,402.0,460.0,5.47,-8.1,0.69,6.06,-60.75,84.62,0.23,-0.54,-0.69,-0.69,-0.56,1.78,-0.82,0.0,1.0,3.0
2975,40.394822,t,511.0,454.0,142.0,68.0,511.0,314.0,387.0,447.0,5.37,-8.17,0.64,2.31,-61.88,77.0,0.24,-0.54,-0.69,-0.69,-0.44,1.86,-0.62,0.0,1.0,3.0
2976,40.409825,t,511.0,447.0,136.0,68.0,511.0,318.0,385.0,446.0,5.27,-8.24,0.57,-0.56,-64.69,70.31,0.25,-0.54,-0.68,-0.68,-0.53,1.79,-0.29,0.0,1.0,3.0
2977,40.424828,t,511.0,435.0,134.0,69.0,511.0,319.0,388.0,451.0,5.19,-8.3,0.51,-2.37,-61.63,50.56,0.26,-0.55,-0.67,-0.67,-0.07,1.58,-0.07,0.0,1.0,3.0
2978,40.439832,t,500.0,390.0,134.0,68.0,511.0,323.0,395.0,455.0,4.99,-8.43,0.36,5.31,-58.56,45.94,0.27,-0.55,-0.67,-0.67,-0.31,2.03,-0.16,0.0,1.0,3.0
2979,40.454863,t,496.0,374.0,136.0,70.0,511.0,322.0,399.0,458.0,4.93,-8.46,0.32,7.75,-55.44,40.88,0.27,-0.55,-0.66,-0.66,-0.63,2.47,-0.13,0.0,1.0,3.0
2980,40.468877,t,478.0,352.0,134.0,70.0,511.0,319.0,404.0,466.0,4.88,-8.49,0.29,7.37,-53.19,35.25,0.28,-0.55,-0.66,-0.66,-0.67,2.73,-0.44,0.0,1.0,3.0
2981,40.484909,t,454.0,331.0,130.0,69.0,511.0,318.0,410.0,480.0,4.84,-8.52,0.2,-5.12,-52.75,22.5,0.29,-0.56,-0.65,-0.65,-0.5,2.52,-0.81,0.0,1.0,3.0
2982,40.498927,t,434.0,298.0,127.0,69.0,511.0,329.0,453.0,510.0,4.79,-8.55,0.14,-6.56,-57.31,11.0,0.29,-0.56,-0.65,-0.65,-0.5,2.66,-1.07,0.0,1.0,3.0
2983,40.514095,t,430.0,291.0,128.0,68.0,511.0,303.0,446.0,498.0,4.76,-8.56,0.03,-3.19,-58.5,6.37,0.29,-0.57,-0.65,-0.65,-0.43,2.64,-0.76,0.0,1.0,3.0
2984,40.529174,t,414.0,280.0,131.0,69.0,511.0,298.0,447.0,499.0,4.76,-8.56,-0.01,-0.94,-59.19,1.31,0.29,-0.57,-0.64,-0.64,-0.38,2.36,-0.69,0.0,1.0,3.0
2985,40.544349,t,401.0,272.0,134.0,69.0,511.0,299.0,472.0,511.0,4.78,-8.56,-0.1,3.44,-58.69,-7.19,0.3,-0.58,-0.64,-0.64,-0.3,2.34,-0.66,0.0,1.0,3.0
2986,40.559497,t,406.0,273.0,137.0,69.0,511.0,283.0,451.0,494.0,4.79,-8.55,-0.14,4.75,-57.31,-10.38,0.3,-0.58,-0.63,-0.63,-0.16,1.62,-0.66,0.0,1.0,3.0
2987,40.574559,t,396.0,274.0,138.0,70.0,511.0,281.0,511.0,511.0,4.83,-8.52,-0.2,11.38,-52.88,-15.75,0.3,-0.59,-0.63,-0.63,-0.22,1.52,-0.5,0.0,1.0,3.0
2988,40.589594,t,409.0,279.0,137.0,68.0,511.0,264.0,509.0,511.0,4.88,-8.49,-0.24,17.81,-48.44,-21.31,0.31,-0.59,-0.63,-0.63,-0.16,0.72,0.02,0.0,1.0,3.0
2989,40.605646,t,407.0,286.0,138.0,69.0,511.0,269.0,511.0,511.0,4.92,-8.47,-0.24,21.0,-46.19,-24.19,0.31,-0.6,-0.63,-0.63,-0.09,0.41,0.0,0.0,1.0,3.0
2990,40.619679,t,416.0,283.0,133.0,69.0,511.0,262.0,508.0,511.0,4.96,-8.45,-0.24,27.69,-41.19,-28.62,0.31,-0.6,-0.63,-0.63,0.18,0.5,0.03,0.0,1.0,3.0
2991,40.634682,t,420.0,287.0,133.0,69.0,510.0,262.0,503.0,511.0,5.04,-8.4,-0.23,28.56,-38.19,-31.06,0.31,-0.6,-0.63,-0.63,0.16,0.69,0.19,0.0,1.0,3.0
2992,40.649776,t,427.0,298.0,130.0,70.0,511.0,274.0,508.0,511.0,5.14,-8.34,-0.21,26.19,-32.81,-38.88,0.31,-0.61,-0.63,-0.63,0.21,1.11,0.39,0.0,1.0,3.0
2993,40.66478,t,430.0,303.0,127.0,69.0,496.0,272.0,470.0,511.0,5.2,-8.3,-0.21,22.56,-30.06,-44.31,0.31,-0.61,-0.63,-0.63,0.34,1.4,0.54,0.0,1.0,3.0
2994,40.679839,t,422.0,309.0,123.0,68.0,481.0,274.0,437.0,470.0,5.28,-8.26,-0.21,18.06,-26.12,-50.5,0.31,-0.61,-0.63,-0.63,0.28,1.79,1.03,0.0,1.0,3.0
2995,40.694902,t,421.0,315.0,122.0,69.0,471.0,281.0,420.0,453.0,5.36,-8.2,-0.21,3.0,-14.88,-67.62,0.31,-0.62,-0.63,-0.63,0.42,2.05,1.54,0.0,1.0,3.0
2996,40.708981,t,417.0,345.0,106.0,69.0,475.0,300.0,388.0,432.0,5.69,-7.98,-0.26,-18.5,-1.81,-91.69,0.3,-0.62,-0.63,-0.63,0.63,1.47,0.58,0.0,1.0,3.0
2997,40.724055,t,430.0,356.0,106.0,69.0,482.0,293.0,370.0,436.0,5.83,-7.87,-0.3,-28.5,-0.75,-100.19,0.29,-0.63,-0.63,-0.63,0.87,0.19,-0.21,0.0,1.0,3.0
2998,40.739131,t,436.0,375.0,106.0,69.0,495.0,289.0,355.0,444.0,5.96,-7.77,-0.33,-24.81,-1.81,-103.19,0.28,-0.63,-0.64,-0.64,2.86,-3.64,-1.22,0.0,1.0,3.0
2999,40.755214,t,458.0,417.0,105.0,69.0,482.0,294.0,319.0,440.0,6.22,-7.56,-0.35,19.5,4.94,-92.31,0.27,-0.64,-0.64,-0.64,4.66,-3.28,1.09,0.0,1.0,3.0
3000,40.769388,t,446.0,422.0,102.0,68.0,471.0,295.0,326.0,409.0,6.46,-7.37,-0.25,36.25,18.0,-92.19,0.26,-0.64,-0.65,-0.65,7.15,-3.85,1.21,0.0,1.0,3.0
3001,40.784504,t,432.0,452.0,95.0,69.0,424.0,288.0,344.0,376.0,6.58,-7.26,-0.18,36.69,22.44,-94.69,0.26,-0.64,-0.65,-0.65,8.28,-5.82,0.74,0.0,1.0,3.0
3002,40.799609,t,414.0,449.0,96.0,68.0,378.0,276.0,346.0,362.0,6.69,-7.16,-0.16,14.44,-19.0,-76.44,0.25,-0.65,-0.65,-0.65,8.67,-5.47,3.61,0.0,1.0,3.0
3003,40.814635,t,373.0,407.0,138.0,68.0,306.0,252.0,340.0,367.0,6.86,-7.0,-0.18,16.37,-8.38,-53.94,0.25,-0.65,-0.66,-0.66,1.23,6.39,2.02,0.0,1.0,3.0
3004,40.82964,t,362.0,401.0,150.0,68.0,289.0,245.0,330.0,385.0,7.0,-6.86,-0.16,-3.44,10.06,-63.63,0.24,-0.65,-0.66,-0.66,-0.15,7.93,1.12,0.0,1.0,3.0
3005,40.844708,t,366.0,412.0,149.0,69.0,283.0,248.0,329.0,387.0,7.1,-6.76,-0.17,-31.5,21.69,-82.75,0.24,-0.65,-0.66,-0.66,-0.65,5.28,-1.15,0.0,1.0,3.0
3006,40.859738,t,385.0,441.0,144.0,68.0,289.0,254.0,327.0,383.0,7.21,-6.63,-0.2,-50.5,23.56,-99.12,0.23,-0.65,-0.66,-0.66,-0.5,2.9,-0.65,0.0,1.0,3.0
3007,40.874801,t,398.0,467.0,135.0,69.0,294.0,262.0,314.0,366.0,7.49,-6.32,-0.26,-45.81,20.75,-129.56,0.2,-0.66,-0.67,-0.67,4.08,-4.05,1.02,0.0,1.0,3.0
3008,40.889804,t,402.0,470.0,132.0,68.0,292.0,257.0,309.0,370.0,7.63,-6.14,-0.27,-21.62,13.88,-138.31,0.19,-0.67,-0.67,-0.67,4.59,-2.77,1.51,0.0,1.0,3.0
3009,40.904807,t,399.0,454.0,131.0,68.0,289.0,252.0,307.0,359.0,7.9,-5.79,-0.2,23.56,13.5,-123.44,0.18,-0.67,-0.68,-0.68,4.93,-1.38,1.19,0.0,1.0,3.0
3010,40.919811,t,393.0,454.0,138.0,69.0,282.0,253.0,310.0,368.0,8.09,-5.53,-0.1,38.81,13.63,-86.37,0.18,-0.67,-0.68,-0.68,2.75,0.32,0.15,0.0,1.0,3.0
3011,40.934814,t,387.0,462.0,140.0,69.0,275.0,246.0,312.0,363.0,8.16,-5.43,-0.04,42.94,14.31,-75.56,0.17,-0.67,-0.68,-0.68,1.55,1.03,0.37,0.0,1.0,3.0
3012,40.949818,t,388.0,478.0,139.0,68.0,264.0,230.0,304.0,346.0,8.23,-5.32,0.02,41.75,16.75,-74.5,0.17,-0.67,-0.69,-0.69,0.9,1.62,0.09,0.0,1.0,3.0
3013,40.964847,t,380.0,486.0,143.0,68.0,262.0,225.0,301.0,344.0,8.3,-5.21,0.08,16.12,20.25,-93.37,0.16,-0.67,-0.7,-0.7,-0.1,3.74,-0.08,0.0,1.0,3.0
3014,40.97888,t,382.0,492.0,140.0,68.0,256.0,224.0,295.0,344.0,8.54,-4.8,0.2,-0.81,17.19,-97.5,0.15,-0.67,-0.7,-0.7,-0.43,3.58,-0.27,0.0,1.0,3.0
3015,40.994939,t,386.0,491.0,143.0,68.0,252.0,224.0,285.0,349.0,8.62,-4.65,0.21,-18.44,11.63,-100.69,0.15,-0.67,-0.7,-0.7,-0.18,2.83,-0.74,0.0,1.0,3.0
3016,41.009022,t,393.0,483.0,147.0,68.0,254.0,222.0,268.0,353.0,8.7,-4.5,0.18,-33.63,3.19,-103.44,0.13,-0.67,-0.7,-0.7,-0.15,2.37,-0.56,0.0,1.0,3.0
3017,41.025093,t,404.0,447.0,153.0,77.0,247.0,217.0,260.0,363.0,8.94,-4.02,0.04,-53.31,-8.38,-104.69,0.11,-0.68,-0.7,-0.7,1.46,0.94,0.06,0.0,1.0,3.0
3018,41.039151,t,408.0,445.0,159.0,78.0,249.0,213.0,255.0,370.0,9.0,-3.87,0.0,-50.63,-1.31,-100.56,0.1,-0.68,-0.7,-0.7,1.85,0.49,0.05,0.0,1.0,3.0
3019,41.054169,t,408.0,443.0,168.0,80.0,248.0,198.0,254.0,362.0,9.07,-3.72,0.0,-44.75,12.06,-94.44,0.09,-0.68,-0.7,-0.7,1.15,-0.05,-0.37,0.0,1.0,3.0
3020,41.069337,t,401.0,440.0,171.0,78.0,244.0,188.0,253.0,362.0,9.12,-3.58,0.0,-38.81,20.25,-87.19,0.08,-0.68,-0.7,-0.7,-1.62,-1.09,-0.82,0.0,1.0,3.0
3021,41.084473,t,389.0,443.0,190.0,78.0,239.0,164.0,254.0,354.0,9.22,-3.33,0.02,-18.56,13.63,-76.87,0.06,-0.68,-0.71,-0.71,-2.24,-1.04,-1.22,0.0,1.0,3.0
3022,41.09959,t,388.0,456.0,200.0,79.0,232.0,164.0,253.0,353.0,9.3,-3.09,0.03,-15.19,0.81,-74.56,0.06,-0.69,-0.71,-0.71,-2.65,-0.9,-1.72,0.0,1.0,3.0
3023,41.114624,t,402.0,462.0,202.0,78.0,205.0,150.0,249.0,356.0,9.34,-2.98,0.0,-18.37,-10.88,-69.25,0.05,-0.69,-0.71,-0.71,0.36,-0.28,-1.62,0.0,1.0,3.0
3024,41.129634,t,409.0,459.0,204.0,78.0,195.0,142.0,242.0,358.0,9.37,-2.87,0.0,-16.75,5.06,-69.87,0.04,-0.69,-0.71,-0.71,-2.19,0.44,-0.8,0.0,1.0,3.0
3025,41.144662,t,406.0,454.0,215.0,77.0,191.0,134.0,229.0,369.0,9.46,-2.55,-0.07,-19.0,-17.62,-61.56,0.03,-0.69,-0.7,-0.7,-1.43,1.35,-0.44,0.0,1.0,3.0
3026,41.159766,t,412.0,464.0,230.0,77.0,184.0,126.0,218.0,364.0,9.49,-2.45,-0.11,-18.87,-19.31,-61.88,0.03,-0.7,-0.7,-0.7,-1.08,1.71,-0.15,0.0,1.0,3.0
3027,41.174786,t,414.0,465.0,238.0,76.0,171.0,113.0,216.0,370.0,9.51,-2.35,-0.14,-22.62,-16.19,-63.38,0.02,-0.7,-0.7,-0.7,-0.84,1.45,-0.48,0.0,1.0,3.0
3028,41.18995,t,404.0,456.0,250.0,76.0,170.0,114.0,222.0,374.0,9.54,-2.24,-0.17,-26.37,-4.56,-64.19,0.01,-0.7,-0.7,-0.7,-1.02,-0.55,-0.54,0.0,1.0,3.0
3029,41.205023,t,423.0,452.0,248.0,78.0,162.0,111.0,220.0,371.0,9.61,-1.93,-0.21,-37.0,0.44,-61.38,0.0,-0.7,-0.7,-0.7,-1.0,-1.11,-0.55,0.0,1.0,3.0
3030,41.219115,t,427.0,428.0,251.0,77.0,159.0,116.0,224.0,379.0,9.63,-1.83,-0.22,-38.19,1.81,-59.94,0.0,0.7,0.7,0.7,-1.21,-1.24,-0.47,0.0,1.0,3.0
3031,41.234204,t,436.0,415.0,254.0,79.0,156.0,120.0,234.0,382.0,9.64,-1.73,-0.23,-38.63,4.87,-59.38,0.01,0.7,0.7,0.7,-1.28,-1.56,-0.51,0.0,1.0,3.0
3032,41.249451,t,449.0,410.0,253.0,78.0,155.0,121.0,246.0,376.0,9.66,-1.63,-0.23,-26.94,6.62,-57.56,0.02,0.7,0.7,0.7,-0.63,-1.84,-0.39,0.0,1.0,3.0
3033,41.264592,t,459.0,425.0,259.0,78.0,151.0,120.0,281.0,388.0,9.7,-1.35,-0.21,-9.88,3.69,-49.88,0.03,0.7,0.7,0.7,-0.28,-2.75,-0.4,0.0,1.0,3.0
3034,41.279629,t,477.0,455.0,282.0,78.0,142.0,126.0,289.0,399.0,9.72,-1.28,-0.21,1.12,1.5,-46.56,0.03,0.7,0.7,0.7,0.05,-2.79,-0.63,0.0,1.0,3.0
3035,41.294647,t,482.0,482.0,295.0,79.0,140.0,130.0,302.0,411.0,9.73,-1.2,-0.2,6.69,10.19,-46.06,0.04,0.7,0.7,0.7,0.75,-3.99,-1.88,0.0,1.0,3.0
3036,41.309651,t,491.0,497.0,305.0,79.0,145.0,136.0,311.0,417.0,9.74,-1.05,-0.15,11.44,15.75,-45.56,0.04,0.7,0.7,0.7,0.17,-4.26,-1.87,0.0,1.0,3.0
3037,41.3247,t,503.0,511.0,306.0,79.0,150.0,140.0,314.0,422.0,9.75,-0.97,-0.11,19.69,19.62,-44.38,0.04,0.7,0.7,0.7,-0.44,-4.3,-1.88,0.0,1.0,3.0
3038,41.339723,t,511.0,511.0,310.0,80.0,157.0,142.0,317.0,431.0,9.76,-0.9,-0.07,30.37,26.44,-34.44,0.04,0.7,0.71,0.71,0.04,-2.41,-1.63,0.0,1.0,3.0
3039,41.354755,t,510.0,511.0,306.0,82.0,168.0,142.0,323.0,430.0,9.77,-0.73,0.06,43.75,28.31,-28.44,0.04,0.7,0.71,0.71,0.46,-2.08,-1.47,0.0,1.0,3.0
3040,41.369811,t,504.0,511.0,308.0,80.0,171.0,139.0,319.0,440.0,9.78,-0.69,0.12,47.81,26.31,-22.31,0.04,0.7,0.71,0.71,0.86,-1.36,-1.03,0.0,1.0,3.0
3041,41.384869,t,501.0,511.0,304.0,78.0,172.0,140.0,318.0,432.0,9.78,-0.66,0.15,52.0,19.56,-16.5,0.04,0.7,0.71,0.71,1.19,-0.84,-0.49,0.0,1.0,3.0
3042,41.39901,t,494.0,493.0,299.0,78.0,170.0,140.0,312.0,416.0,9.78,-0.62,0.2,31.87,11.31,-8.63,0.04,0.69,0.71,0.71,2.93,0.08,-0.57,0.0,1.0,3.0
3043,41.414064,t,487.0,430.0,294.0,74.0,170.0,138.0,303.0,400.0,9.78,-0.6,0.25,12.75,13.0,-4.81,0.04,0.69,0.72,0.72,3.04,-0.12,-0.7,0.0,1.0,3.0
3044,41.429216,t,482.0,386.0,287.0,79.0,169.0,136.0,293.0,398.0,9.78,-0.6,0.27,7.94,10.25,-1.81,0.04,0.69,0.72,0.72,3.5,-0.31,-0.92,0.0,1.0,3.0
3045,41.444308,t,468.0,358.0,283.0,83.0,168.0,130.0,283.0,399.0,9.78,-0.6,0.29,6.62,9.75,-0.13,0.04,0.69,0.72,0.72,5.11,-0.72,-0.98,0.0,1.0,3.0
3046,41.459511,t,454.0,343.0,270.0,84.0,164.0,119.0,267.0,394.0,9.78,-0.6,0.31,-3.87,20.56,-4.62,0.04,0.69,0.72,0.72,4.77,-0.69,-0.11,0.0,1.0,3.0
3047,41.474603,t,426.0,317.0,250.0,85.0,167.0,115.0,249.0,333.0,9.77,-0.61,0.45,-34.75,35.88,9.88,0.04,0.69,0.72,0.72,4.96,-0.24,1.36,0.0,1.0,3.0
3048,41.489655,t,390.0,280.0,194.0,87.0,178.0,97.0,229.0,304.0,9.76,-0.68,0.5,-54.81,39.31,35.44,0.04,0.68,0.73,0.73,4.16,-1.28,1.82,0.0,1.0,3.0
3049,41.504711,t,346.0,269.0,155.0,84.0,191.0,95.0,221.0,286.0,9.73,-0.94,0.66,-88.25,57.63,86.56,0.04,0.67,0.73,0.73,4.64,-4.2,4.1,0.0,1.0,3.0
3050,41.519733,t,313.0,243.0,139.0,85.0,206.0,94.0,215.0,270.0,9.71,-1.13,0.74,-106.94,59.13,104.12,0.04,0.67,0.73,0.73,3.83,-7.65,1.55,0.0,1.0,3.0
3051,41.534804,t,255.0,211.0,143.0,81.0,214.0,114.0,214.0,265.0,9.63,-1.62,0.89,-54.19,55.25,152.5,0.04,0.66,0.74,0.74,1.73,-8.72,-1.46,0.0,1.0,3.0
3052,41.549807,t,262.0,208.0,141.0,79.0,218.0,124.0,215.0,270.0,9.57,-1.85,1.0,-8.38,65.94,141.5,0.02,0.65,0.75,0.75,0.15,-4.87,-1.66,0.0,1.0,3.0
3053,41.564862,t,263.0,214.0,143.0,76.0,238.0,146.0,220.0,286.0,9.45,-2.3,1.23,40.88,58.88,144.81,0.01,0.64,0.75,0.75,1.61,-1.44,-3.53,0.0,1.0,3.0
3054,41.578867,t,299.0,221.0,145.0,69.0,250.0,146.0,232.0,308.0,9.37,-2.54,1.34,46.75,55.63,154.31,0.0,-0.63,-0.75,-0.75,2.1,0.61,-2.62,0.0,1.0,3.0
3055,41.5949,t,312.0,231.0,143.0,69.0,278.0,132.0,236.0,318.0,9.29,-2.79,1.41,27.94,36.06,157.0,0.01,-0.63,-0.76,-0.76,3.8,5.26,2.4,0.0,1.0,3.0
3056,41.609903,t,344.0,232.0,155.0,70.0,311.0,138.0,256.0,325.0,9.11,-3.3,1.49,-27.56,31.37,158.37,0.04,-0.62,-0.76,-0.76,2.63,4.01,2.32,0.0,1.0,3.0
3057,41.624933,t,350.0,239.0,167.0,69.0,314.0,138.0,248.0,310.0,9.01,-3.55,1.49,-38.81,15.06,154.56,0.04,-0.61,-0.76,-0.76,0.02,-1.53,1.8,0.0,1.0,3.0
3058,41.639946,t,359.0,253.0,170.0,69.0,326.0,143.0,248.0,308.0,8.82,-4.04,1.41,-46.38,-5.87,150.31,0.05,-0.61,-0.75,-0.75,0.78,-1.47,1.3,0.0,1.0,3.0
3059,41.654949,t,360.0,262.0,176.0,70.0,342.0,155.0,260.0,308.0,8.71,-4.27,1.36,-50.0,-10.0,149.75,0.06,-0.61,-0.75,-0.75,1.04,-0.7,1.23,0.0,1.0,3.0
3060,41.668964,t,366.0,266.0,174.0,70.0,358.0,157.0,260.0,319.0,8.6,-4.51,1.32,-49.19,22.37,138.25,0.07,-0.6,-0.75,-0.75,0.42,0.89,2.02,0.0,1.0,3.0
3061,41.684005,t,360.0,274.0,152.0,69.0,375.0,169.0,256.0,325.0,8.24,-5.16,1.23,-88.5,23.31,135.87,0.08,-0.59,-0.75,-0.75,0.47,1.39,1.78,0.0,1.0,3.0
3062,41.699081,t,360.0,277.0,149.0,69.0,366.0,182.0,248.0,330.0,8.11,-5.37,1.17,-95.37,19.0,136.44,0.08,-0.59,-0.74,-0.74,0.11,1.02,1.47,0.0,1.0,3.0
3063,41.714223,t,359.0,278.0,142.0,70.0,372.0,194.0,250.0,335.0,7.98,-5.59,1.09,-93.25,9.75,139.37,0.08,-0.59,-0.74,-0.74,1.07,1.66,0.06,0.0,1.0,3.0
3064,41.729285,t,353.0,296.0,136.0,68.0,386.0,209.0,248.0,342.0,7.68,-6.01,0.95,-51.19,5.94,149.19,0.1,-0.57,-0.73,-0.73,-0.35,1.6,-0.28,0.0,1.0,3.0
3065,41.744314,t,357.0,310.0,137.0,69.0,393.0,220.0,256.0,339.0,7.36,-6.41,0.87,-45.0,9.56,146.44,0.11,-0.57,-0.73,-0.73,-0.87,2.1,0.23,0.0,1.0,3.0
3066,41.75964,t,360.0,315.0,134.0,69.0,404.0,230.0,264.0,337.0,7.2,-6.59,0.84,-41.75,12.94,141.75,0.11,-0.56,-0.73,-0.73,-1.16,2.72,0.93,0.0,1.0,3.0
3067,41.774654,t,359.0,322.0,131.0,70.0,414.0,251.0,283.0,355.0,7.04,-6.76,0.81,-36.69,12.88,136.25,0.13,-0.55,-0.72,-0.72,-1.15,3.01,1.56,0.0,1.0,3.0
3068,41.789658,t,359.0,324.0,132.0,69.0,420.0,256.0,285.0,355.0,6.74,-7.07,0.77,-26.62,7.75,124.12,0.14,-0.55,-0.72,-0.72,-1.72,5.18,1.14,0.0,1.0,3.0
3069,41.804721,t,360.0,328.0,133.0,68.0,422.0,266.0,298.0,357.0,6.45,-7.34,0.7,-31.75,4.31,110.69,0.14,-0.54,-0.72,-0.72,-2.42,5.5,0.58,0.0,1.0,3.0
3070,41.819754,t,355.0,325.0,137.0,69.0,439.0,276.0,309.0,361.0,6.32,-7.46,0.66,-40.5,4.31,102.12,0.15,-0.54,-0.72,-0.72,-2.36,5.78,0.72,0.0,1.0,3.0
3071,41.834787,t,351.0,317.0,134.0,68.0,446.0,284.0,322.0,360.0,6.2,-7.56,0.59,-49.5,2.62,93.37,0.15,-0.54,-0.71,-0.71,-2.18,5.84,0.64,0.0,1.0,3.0
3072,41.84882,t,354.0,326.0,132.0,69.0,456.0,286.0,330.0,374.0,6.09,-7.66,0.52,-64.87,-1.44,76.44,0.16,-0.53,-0.71,-0.71,-1.93,4.75,0.72,0.0,1.0,3.0
3073,41.864852,t,338.0,308.0,134.0,69.0,474.0,284.0,351.0,399.0,5.82,-7.88,0.24,-72.06,-4.75,61.19,0.16,-0.53,-0.7,-0.7,-1.65,4.52,0.29,0.0,1.0,3.0
3074,41.879886,t,330.0,285.0,132.0,69.0,487.0,287.0,354.0,403.0,5.74,-7.94,0.14,-70.06,-4.69,54.5,0.16,-0.53,-0.69,-0.69,-1.54,4.67,0.48,0.0,1.0,3.0
3075,41.894932,t,329.0,270.0,127.0,68.0,501.0,288.0,359.0,410.0,5.68,-7.99,0.04,-66.56,-4.19,47.81,0.16,-0.53,-0.69,-0.69,-1.39,4.48,0.56,0.0,1.0,3.0
3076,41.909011,t,337.0,261.0,127.0,69.0,511.0,296.0,392.0,421.0,5.54,-8.08,-0.23,-66.25,-1.31,24.87,0.16,-0.53,-0.68,-0.68,-1.57,4.46,-0.2,0.0,1.0,3.0
3077,41.925015,t,342.0,254.0,126.0,69.0,511.0,292.0,403.0,418.0,5.51,-8.09,-0.32,-64.37,-0.81,18.06,0.15,-0.53,-0.68,-0.68,-1.65,3.65,-0.32,0.0,1.0,3.0
3078,41.939075,t,344.0,253.0,126.0,70.0,511.0,305.0,429.0,439.0,5.5,-8.1,-0.4,-58.5,1.12,12.81,0.15,-0.53,-0.68,-0.68,-1.5,3.03,-0.2,0.0,1.0,3.0
3079,41.955156,t,348.0,258.0,126.0,68.0,511.0,298.0,415.0,447.0,5.48,-8.11,-0.47,-53.56,1.31,9.19,0.15,-0.53,-0.67,-0.67,-1.35,2.38,-0.65,0.0,1.0,3.0
3080,41.969243,t,345.0,258.0,129.0,69.0,511.0,310.0,471.0,483.0,5.48,-8.1,-0.64,-38.75,4.19,-5.56,0.14,-0.53,-0.67,-0.67,-0.83,2.31,-0.9,0.0,1.0,3.0
3081,41.984309,t,359.0,262.0,129.0,68.0,511.0,295.0,458.0,475.0,5.5,-8.08,-0.69,-40.63,5.81,-10.88,0.14,-0.53,-0.67,-0.67,-0.84,1.85,-0.84,0.0,1.0,3.0
3082,41.999413,t,370.0,263.0,131.0,69.0,511.0,302.0,505.0,511.0,5.52,-8.06,-0.74,-41.19,6.75,-15.75,0.14,-0.53,-0.67,-0.67,-0.57,1.45,-0.41,0.0,1.0,3.0
3083,42.01456,t,388.0,270.0,130.0,68.0,511.0,292.0,477.0,481.0,5.55,-8.04,-0.79,-41.19,8.13,-20.19,0.13,-0.53,-0.66,-0.66,-0.53,1.29,0.44,0.0,1.0,3.0
3084,42.02959,t,398.0,299.0,123.0,69.0,492.0,310.0,455.0,440.0,5.69,-7.93,-0.93,-45.25,10.81,-38.25,0.12,-0.53,-0.66,-0.66,-0.29,1.14,0.72,0.0,1.0,3.0
3085,42.04459,t,403.0,308.0,117.0,69.0,485.0,305.0,433.0,433.0,5.75,-7.87,-0.99,-47.19,10.63,-46.88,0.12,-0.54,-0.66,-0.66,-0.12,0.98,0.71,0.0,1.0,3.0
3086,42.05964,t,411.0,333.0,113.0,68.0,487.0,311.0,428.0,430.0,5.83,-7.81,-1.04,-48.81,10.88,-57.06,0.1,-0.54,-0.66,-0.66,0.94,0.31,-0.44,0.0,1.0,3.0
3087,42.074669,t,439.0,366.0,113.0,69.0,511.0,319.0,417.0,441.0,5.93,-7.73,-1.1,-57.56,24.62,-84.75,0.09,-0.54,-0.66,-0.66,3.09,-3.15,-4.4,0.0,1.0,3.0
3088,42.089762,t,456.0,393.0,113.0,69.0,511.0,324.0,379.0,426.0,6.31,-7.4,-1.21,-42.69,34.19,-97.12,0.08,-0.55,-0.66,-0.66,4.21,-6.13,-2.74,0.0,1.0,3.0
3089,42.104796,t,458.0,431.0,110.0,68.0,510.0,319.0,342.0,412.0,6.43,-7.3,-1.21,-18.5,21.56,-88.44,0.07,-0.55,-0.66,-0.66,7.42,-6.57,0.82,0.0,1.0,3.0
3090,42.119847,t,443.0,450.0,102.0,68.0,451.0,308.0,333.0,377.0,6.54,-7.2,-1.18,4.94,22.0,-84.75,0.06,-0.56,-0.66,-0.66,8.32,-5.87,2.35,0.0,1.0,3.0
3091,42.13489,t,408.0,436.0,103.0,68.0,414.0,291.0,331.0,363.0,6.65,-7.11,-1.09,54.25,34.06,-87.75,0.05,-0.56,-0.67,-0.67,7.48,-2.4,4.02,0.0,1.0,3.0
3092,42.1489,t,382.0,426.0,112.0,68.0,398.0,274.0,346.0,365.0,6.87,-6.93,-0.89,55.5,16.5,-82.62,0.05,-0.56,-0.67,-0.67,4.99,0.32,4.62,0.0,1.0,3.0
3093,42.164897,t,399.0,410.0,122.0,68.0,343.0,264.0,346.0,378.0,7.06,-6.75,-0.82,-8.5,18.75,-80.56,0.03,-0.56,-0.67,-0.67,2.81,0.47,2.96,0.0,1.0,3.0
3094,42.1789,t,402.0,413.0,137.0,69.0,328.0,264.0,335.0,386.0,7.15,-6.65,-0.84,-48.81,17.75,-70.0,0.03,-0.57,-0.67,-0.67,2.24,3.1,1.54,0.0,1.0,3.0
3095,42.193903,t,398.0,434.0,143.0,69.0,313.0,262.0,330.0,389.0,7.31,-6.46,-0.91,-63.5,31.12,-66.81,0.02,-0.57,-0.67,-0.67,1.61,2.4,2.07,0.0,1.0,3.0
3096,42.209907,t,391.0,447.0,146.0,70.0,307.0,267.0,334.0,382.0,7.4,-6.36,-0.92,-62.06,44.25,-70.5,0.01,-0.57,-0.67,-0.67,1.62,1.3,1.74,0.0,1.0,3.0
3097,42.22491,t,391.0,458.0,144.0,68.0,297.0,261.0,329.0,378.0,7.49,-6.25,-0.9,-51.13,56.88,-80.31,0.01,0.57,0.68,0.68,1.82,0.01,1.55,0.0,1.0,3.0
3098,42.238914,t,386.0,479.0,138.0,69.0,294.0,260.0,331.0,366.0,7.83,-5.85,-0.72,-15.81,61.75,-101.06,0.03,0.57,0.68,0.68,0.97,-0.01,-0.17,0.0,1.0,3.0
3099,42.254946,t,388.0,483.0,137.0,68.0,286.0,258.0,326.0,352.0,7.93,-5.72,-0.67,-17.69,51.5,-95.44,0.04,0.57,0.68,0.68,0.75,0.43,-0.11,0.0,1.0,3.0
3100,42.268979,t,387.0,492.0,140.0,68.0,283.0,253.0,312.0,350.0,8.02,-5.6,-0.63,-19.12,39.63,-88.12,0.05,0.57,0.68,0.68,0.74,0.28,0.3,0.0,1.0,3.0
3101,42.283982,t,394.0,486.0,141.0,69.0,282.0,252.0,308.0,355.0,8.17,-5.37,-0.6,-22.5,23.5,-76.19,0.06,0.57,0.68,0.68,0.72,0.13,0.56,0.0,1.0,3.0
3102,42.300071,t,396.0,472.0,139.0,69.0,277.0,248.0,309.0,361.0,8.24,-5.27,-0.6,-25.75,20.75,-70.69,0.06,0.57,0.68,0.68,0.2,1.03,0.57,0.0,1.0,3.0
3103,42.314101,t,402.0,476.0,140.0,68.0,276.0,238.0,302.0,362.0,8.37,-5.07,-0.6,-34.94,20.81,-68.81,0.09,0.58,0.68,0.68,-0.14,2.05,-0.02,0.0,1.0,3.0
3104,42.329191,t,405.0,477.0,141.0,69.0,278.0,238.0,298.0,364.0,8.43,-4.96,-0.6,-46.13,23.94,-73.69,0.09,0.58,0.68,0.68,0.0,1.95,0.14,0.0,1.0,3.0
3105,42.344249,t,405.0,473.0,141.0,68.0,275.0,235.0,294.0,365.0,8.56,-4.73,-0.61,-54.19,25.5,-76.37,0.1,0.58,0.68,0.68,0.27,1.37,-0.14,0.0,1.0,3.0
3106,42.359343,t,405.0,468.0,143.0,68.0,274.0,234.0,284.0,368.0,8.63,-4.61,-0.62,-61.19,26.87,-78.19,0.11,0.58,0.68,0.68,0.58,0.81,0.05,0.0,1.0,3.0
3107,42.374524,t,403.0,461.0,145.0,69.0,272.0,241.0,280.0,382.0,8.75,-4.36,-0.65,-72.56,26.19,-79.5,0.14,0.58,0.67,0.67,0.67,-0.16,-0.2,0.0,1.0,3.0
3108,42.389669,t,418.0,469.0,150.0,69.0,266.0,234.0,272.0,372.0,8.82,-4.23,-0.67,-75.87,24.0,-78.81,0.15,0.58,0.67,0.67,0.99,0.04,-0.06,0.0,1.0,3.0
3109,42.40466,t,412.0,473.0,154.0,69.0,266.0,237.0,274.0,374.0,8.93,-3.98,-0.69,-71.19,26.37,-73.94,0.16,0.58,0.66,0.66,1.29,0.17,0.02,0.0,1.0,3.0
3110,42.42067,t,426.0,475.0,158.0,74.0,265.0,232.0,275.0,377.0,8.98,-3.86,-0.69,-65.37,29.94,-72.19,0.16,0.58,0.66,0.66,1.24,0.24,0.16,0.0,1.0,3.0
3111,42.434677,t,416.0,484.0,162.0,78.0,263.0,227.0,276.0,370.0,9.03,-3.74,-0.66,-60.69,40.38,-66.0,0.19,0.58,0.66,0.66,0.13,-0.26,-0.84,0.0,1.0,3.0
3112,42.44974,t,426.0,502.0,165.0,82.0,270.0,223.0,283.0,376.0,9.17,-3.42,-0.6,-62.13,40.88,-62.13,0.2,0.58,0.66,0.66,-0.45,-0.33,-0.8,0.0,1.0,3.0
3113,42.464743,t,429.0,511.0,178.0,81.0,269.0,213.0,277.0,370.0,9.2,-3.32,-0.58,-62.5,39.19,-59.25,0.21,0.58,0.65,0.65,-0.83,-0.23,-0.98,0.0,1.0,3.0
3114,42.479747,t,428.0,508.0,185.0,80.0,275.0,209.0,281.0,375.0,9.24,-3.22,-0.55,-63.81,36.31,-58.63,0.22,0.58,0.65,0.65,-0.95,0.08,-1.19,0.0,1.0,3.0
3115,42.49475,t,435.0,511.0,195.0,78.0,274.0,208.0,281.0,383.0,9.28,-3.11,-0.54,-68.06,29.87,-60.88,0.23,0.58,0.65,0.65,-1.37,-0.03,-0.88,0.0,1.0,3.0
3116,42.50981,t,436.0,511.0,207.0,79.0,265.0,194.0,278.0,394.0,9.38,-2.8,-0.51,-73.81,25.37,-61.06,0.25,0.57,0.64,0.64,-1.34,-0.84,-0.96,0.0,1.0,3.0
3117,42.524867,t,439.0,511.0,214.0,78.0,265.0,186.0,277.0,401.0,9.41,-2.7,-0.51,-74.0,22.94,-60.0,0.26,0.57,0.64,0.64,-1.43,-0.97,-0.97,0.0,1.0,3.0
3118,42.538871,t,444.0,511.0,226.0,77.0,255.0,184.0,278.0,411.0,9.44,-2.59,-0.51,-73.62,14.38,-59.25,0.27,0.57,0.63,0.63,-1.73,-1.33,-0.64,0.0,1.0,3.0
3119,42.554903,t,447.0,508.0,228.0,78.0,250.0,177.0,271.0,416.0,9.49,-2.39,-0.53,-70.62,9.19,-58.13,0.28,0.57,0.63,0.63,-1.14,-1.5,-0.22,0.0,1.0,3.0
3120,42.569907,t,450.0,502.0,229.0,78.0,247.0,165.0,263.0,416.0,9.51,-2.29,-0.55,-68.25,6.87,-56.13,0.29,0.57,0.62,0.62,-0.9,-1.62,-0.32,0.0,1.0,3.0
3121,42.58391,t,447.0,495.0,232.0,78.0,231.0,158.0,260.0,422.0,9.53,-2.2,-0.57,-50.94,6.62,-43.5,0.3,0.57,0.61,0.61,-0.85,-1.4,-0.41,0.0,1.0,3.0
3122,42.598939,t,446.0,487.0,237.0,77.0,212.0,146.0,247.0,408.0,9.58,-1.97,-0.58,-45.31,7.56,-40.0,0.31,0.57,0.61,0.61,-0.78,-1.49,-0.16,0.0,1.0,3.0
3123,42.614943,t,447.0,480.0,236.0,77.0,209.0,139.0,238.0,406.0,9.6,-1.9,-0.58,-41.69,8.44,-37.69,0.31,0.57,0.61,0.61,-0.75,-1.51,0.08,0.0,1.0,3.0
3124,42.628972,t,445.0,479.0,235.0,77.0,205.0,135.0,233.0,408.0,9.61,-1.84,-0.58,-39.5,8.13,-36.06,0.32,0.57,0.61,0.61,-0.65,-1.87,0.08,0.0,1.0,3.0
3125,42.645067,t,462.0,490.0,238.0,78.0,196.0,133.0,226.0,396.0,9.62,-1.78,-0.58,-32.0,4.69,-33.5,0.33,0.57,0.6,0.6,-0.48,-2.11,0.08,0.0,1.0,3.0
3126,42.659158,t,475.0,496.0,247.0,75.0,177.0,134.0,233.0,425.0,9.65,-1.61,-0.59,-21.31,2.5,-29.56,0.33,0.57,0.6,0.6,-0.56,-1.86,0.44,0.0,1.0,3.0
3127,42.674353,t,484.0,506.0,248.0,76.0,165.0,125.0,227.0,411.0,9.66,-1.56,-0.59,-17.37,0.31,-27.25,0.34,0.57,0.6,0.6,-0.49,-1.7,0.6,0.0,1.0,3.0
3128,42.689495,t,491.0,507.0,253.0,77.0,161.0,125.0,234.0,414.0,9.66,-1.52,-0.6,-12.75,-0.37,-26.69,0.34,0.57,0.59,0.59,-0.49,-1.8,0.49,0.0,1.0,3.0
3129,42.704601,t,497.0,502.0,263.0,78.0,159.0,125.0,248.0,422.0,9.68,-1.42,-0.6,-8.94,0.94,-27.5,0.34,0.57,0.59,0.59,-0.3,-2.05,0.39,0.0,1.0,3.0
3130,42.719664,t,496.0,505.0,276.0,78.0,154.0,125.0,267.0,426.0,9.69,-1.38,-0.58,0.06,7.5,-31.19,0.35,0.57,0.59,0.59,-0.36,-2.62,0.06,0.0,1.0,3.0
3131,42.734697,t,489.0,511.0,288.0,78.0,155.0,124.0,283.0,434.0,9.7,-1.27,-0.56,6.31,18.31,-33.25,0.35,0.57,0.59,0.59,-1.27,-3.02,0.18,0.0,1.0,3.0
3132,42.74973,t,499.0,511.0,293.0,80.0,155.0,125.0,284.0,435.0,9.72,-1.16,-0.49,8.56,20.62,-33.63,0.35,0.57,0.59,0.59,-1.32,-3.26,-0.19,0.0,1.0,3.0
3133,42.764733,t,511.0,511.0,294.0,79.0,154.0,127.0,288.0,434.0,9.73,-1.1,-0.45,10.75,21.12,-33.5,0.36,0.57,0.59,0.59,-0.78,-3.36,-0.44,0.0,1.0,3.0
3134,42.779764,t,511.0,511.0,293.0,79.0,156.0,132.0,288.0,427.0,9.74,-1.05,-0.42,12.81,21.75,-32.56,0.36,0.57,0.59,0.59,-0.12,-3.2,-1.25,0.0,1.0,3.0
3135,42.794767,t,503.0,511.0,300.0,80.0,160.0,139.0,293.0,418.0,9.74,-1.0,-0.37,25.5,25.25,-28.44,0.36,0.57,0.59,0.59,-0.6,-3.02,-1.73,0.0,1.0,3.0
3136,42.809799,t,511.0,511.0,304.0,80.0,176.0,154.0,312.0,420.0,9.76,-0.87,-0.25,32.88,14.75,-22.37,0.36,0.58,0.6,0.6,1.64,-3.24,-2.19,0.0,1.0,3.0
3137,42.824854,t,511.0,511.0,294.0,80.0,180.0,156.0,312.0,420.0,9.76,-0.84,-0.22,29.81,15.31,-21.81,0.36,0.58,0.6,0.6,1.77,-3.75,-2.76,0.0,1.0,3.0
3138,42.838885,t,511.0,511.0,306.0,79.0,191.0,162.0,315.0,425.0,9.77,-0.8,-0.18,34.31,19.12,-18.5,0.36,0.58,0.6,0.6,1.1,-3.54,-3.12,0.0,1.0,3.0
3139,42.854915,t,511.0,511.0,309.0,80.0,200.0,164.0,315.0,426.0,9.77,-0.75,-0.12,44.81,10.63,-11.88,0.36,0.58,0.6,0.6,1.67,-1.23,-2.26,0.0,1.0,3.0
3140,42.868946,t,511.0,511.0,304.0,77.0,206.0,161.0,300.0,401.0,9.77,-0.74,-0.1,51.88,4.19,-3.25,0.36,0.58,0.61,0.61,2.39,-0.29,-1.88,0.0,1.0,3.0
3141,42.883979,t,511.0,447.0,282.0,77.0,206.0,160.0,283.0,368.0,9.77,-0.74,-0.08,48.44,2.12,8.63,0.36,0.58,0.61,0.61,3.81,-0.05,-0.12,0.0,1.0,3.0
3142,42.899035,t,505.0,390.0,258.0,74.0,209.0,154.0,267.0,344.0,9.77,-0.78,-0.06,42.56,5.37,14.0,0.35,0.58,0.61,0.61,3.78,-0.09,0.45,0.0,1.0,3.0
3143,42.914138,t,455.0,345.0,228.0,77.0,216.0,151.0,245.0,327.0,9.77,-0.81,-0.03,37.69,11.31,16.81,0.35,0.58,0.61,0.61,4.06,-0.52,0.83,0.0,1.0,3.0
3144,42.929177,t,418.0,315.0,197.0,76.0,218.0,145.0,228.0,300.0,9.76,-0.85,-0.01,36.69,10.44,21.19,0.35,0.58,0.62,0.62,5.67,-2.02,1.98,0.0,1.0,3.0
3145,42.944292,t,388.0,286.0,168.0,78.0,218.0,139.0,220.0,287.0,9.76,-0.9,0.0,14.63,7.56,44.44,0.34,0.58,0.62,0.62,5.88,-5.28,2.56,0.0,1.0,3.0
3146,42.959295,t,339.0,240.0,135.0,80.0,224.0,145.0,207.0,262.0,9.72,-1.22,0.08,-26.5,28.31,85.31,0.34,0.57,0.62,0.62,5.2,-6.79,1.67,0.0,1.0,3.0
3147,42.97437,t,318.0,225.0,132.0,80.0,227.0,154.0,204.0,257.0,9.7,-1.4,0.13,-40.88,33.63,107.75,0.33,0.56,0.63,0.63,4.18,-7.58,-0.38,0.0,1.0,3.0
3148,42.989457,t,314.0,220.0,134.0,78.0,236.0,177.0,210.0,263.0,9.67,-1.62,0.17,-13.31,32.25,129.19,0.33,0.55,0.64,0.64,2.53,-6.88,-3.87,0.0,1.0,3.0
3149,43.004603,t,319.0,216.0,137.0,70.0,246.0,187.0,220.0,272.0,9.58,-2.05,0.3,36.81,41.0,133.5,0.32,0.54,0.64,0.64,1.84,-5.31,-5.21,0.0,1.0,3.0
3150,43.020645,t,346.0,226.0,140.0,69.0,255.0,200.0,241.0,309.0,9.47,-2.46,0.53,132.31,41.44,133.44,0.29,0.53,0.67,0.67,2.56,-2.5,-4.59,0.0,1.0,3.0
3151,43.034649,t,382.0,241.0,150.0,70.0,290.0,198.0,246.0,319.0,9.33,-2.91,0.75,107.37,29.0,150.75,0.27,0.53,0.68,0.68,2.79,1.2,-0.42,0.0,1.0,3.0
3152,43.049681,t,409.0,251.0,166.0,72.0,311.0,190.0,250.0,341.0,9.24,-3.15,0.83,85.12,19.19,157.81,0.26,0.52,0.69,0.69,3.4,1.41,0.64,0.0,1.0,3.0
3153,43.064715,t,415.0,252.0,171.0,72.0,330.0,197.0,249.0,349.0,9.15,-3.4,0.88,77.06,8.44,165.56,0.25,0.52,0.7,0.7,2.49,1.11,1.48,0.0,1.0,3.0
3154,43.079749,t,418.0,260.0,164.0,68.0,326.0,189.0,238.0,319.0,9.05,-3.65,0.94,78.62,3.5,167.87,0.22,0.51,0.71,0.71,0.24,-0.78,1.11,0.0,1.0,3.0
3155,43.094793,t,403.0,266.0,157.0,68.0,331.0,191.0,246.0,309.0,8.83,-4.15,0.98,71.69,-22.62,171.25,0.19,0.5,0.72,0.72,0.68,0.68,0.78,0.0,1.0,3.0
3156,43.109796,t,379.0,278.0,160.0,69.0,362.0,201.0,260.0,303.0,8.57,-4.64,1.0,43.38,-14.94,168.94,0.18,0.49,0.72,0.72,-0.53,1.4,-0.42,0.0,1.0,3.0
3157,43.124855,t,395.0,286.0,155.0,69.0,367.0,205.0,270.0,309.0,8.44,-4.87,1.0,25.56,-12.5,164.12,0.16,0.48,0.72,0.72,-0.91,1.86,-0.72,0.0,1.0,3.0
3158,43.138869,t,410.0,301.0,160.0,70.0,382.0,217.0,278.0,330.0,8.19,-5.3,0.95,-9.88,-23.94,144.81,0.15,0.48,0.73,0.73,-1.42,2.25,-0.37,0.0,1.0,3.0
3159,43.154874,t,411.0,319.0,156.0,69.0,394.0,230.0,283.0,351.0,8.06,-5.51,0.87,-27.37,-38.75,140.94,0.14,0.47,0.72,0.72,0.11,1.78,0.24,0.0,1.0,3.0
3160,43.168877,t,411.0,346.0,145.0,69.0,410.0,249.0,288.0,373.0,7.79,-5.91,0.68,-12.31,-54.25,149.0,0.12,0.47,0.72,0.72,0.85,1.86,0.59,0.0,1.0,3.0
3161,43.184911,t,411.0,357.0,143.0,69.0,417.0,265.0,291.0,373.0,7.63,-6.11,0.61,-2.12,-50.25,152.12,0.11,0.47,0.72,0.72,0.75,1.88,0.11,0.0,1.0,3.0
3162,43.199904,t,406.0,369.0,142.0,69.0,426.0,272.0,293.0,370.0,7.48,-6.31,0.56,7.19,-45.88,153.5,0.08,0.46,0.72,0.72,-0.06,2.2,-0.1,0.0,1.0,3.0
3163,43.214918,t,394.0,378.0,144.0,69.0,450.0,291.0,304.0,359.0,6.97,-6.87,0.5,31.87,-40.13,146.31,0.06,0.45,0.72,0.72,-1.88,3.96,0.41,0.0,1.0,3.0
3164,43.228921,t,388.0,383.0,145.0,69.0,457.0,295.0,306.0,359.0,6.81,-7.03,0.48,32.81,-43.19,137.62,0.05,0.45,0.72,0.72,-2.47,4.52,0.47,0.0,1.0,3.0
3165,43.243925,t,390.0,378.0,144.0,69.0,462.0,303.0,310.0,362.0,6.66,-7.17,0.47,28.94,-46.38,128.56,0.04,0.44,0.72,0.72,-2.55,4.64,0.7,0.0,1.0,3.0
3166,43.258979,t,385.0,378.0,138.0,68.0,466.0,308.0,318.0,359.0,6.51,-7.31,0.43,8.0,-55.38,110.69,0.02,0.44,0.72,0.72,-2.14,4.96,0.17,0.0,1.0,3.0
3167,43.274031,t,382.0,382.0,133.0,68.0,468.0,314.0,339.0,362.0,6.14,-7.64,0.24,-6.5,-60.38,90.75,0.0,-0.44,-0.72,-0.72,-1.39,4.31,-0.4,0.0,1.0,3.0
3168,43.289099,t,383.0,370.0,127.0,69.0,487.0,325.0,362.0,381.0,6.03,-7.72,0.17,-7.44,-60.56,82.56,0.01,-0.44,-0.71,-0.71,-1.19,4.49,-0.01,0.0,1.0,3.0
3169,43.304257,t,378.0,349.0,123.0,68.0,497.0,314.0,352.0,390.0,5.93,-7.8,0.1,-9.5,-59.13,76.06,0.02,-0.44,-0.71,-0.71,-0.93,4.36,-0.04,0.0,1.0,3.0
3170,43.320362,t,377.0,336.0,125.0,69.0,511.0,315.0,366.0,405.0,5.74,-7.94,-0.03,-7.06,-57.94,66.81,0.04,-0.44,-0.7,-0.7,-0.94,4.64,0.14,0.0,1.0,3.0
3171,43.334463,t,374.0,331.0,124.0,68.0,511.0,316.0,362.0,412.0,5.66,-8.0,-0.1,-9.38,-57.44,54.5,0.04,-0.44,-0.7,-0.7,-0.91,4.3,-0.16,0.0,1.0,3.0
3172,43.349555,t,374.0,318.0,124.0,68.0,511.0,314.0,369.0,420.0,5.51,-8.1,-0.24,-10.44,-57.31,48.56,0.05,-0.44,-0.7,-0.7,-0.83,4.08,-0.13,0.0,1.0,3.0
3173,43.364605,t,371.0,298.0,122.0,68.0,511.0,312.0,372.0,434.0,5.39,-8.17,-0.37,-7.69,-58.38,37.56,0.06,-0.44,-0.69,-0.69,-0.81,2.94,0.56,0.0,1.0,3.0
3174,43.379706,t,373.0,276.0,126.0,69.0,511.0,310.0,388.0,463.0,5.34,-8.2,-0.44,-6.0,-59.75,32.0,0.06,-0.45,-0.69,-0.69,-0.68,2.54,0.6,0.0,1.0,3.0
3175,43.394768,t,377.0,262.0,125.0,69.0,511.0,301.0,406.0,479.0,5.3,-8.23,-0.5,-5.69,-59.19,25.31,0.07,-0.45,-0.68,-0.68,-0.28,1.97,0.12,0.0,1.0,3.0
3176,43.409832,t,374.0,261.0,125.0,69.0,511.0,294.0,426.0,492.0,5.25,-8.25,-0.6,-1.25,-52.63,11.44,0.07,-0.45,-0.68,-0.68,-0.19,1.71,0.53,0.0,1.0,3.0
3177,43.424864,t,378.0,250.0,127.0,68.0,511.0,278.0,447.0,511.0,5.24,-8.26,-0.65,0.37,-50.13,5.75,0.07,-0.46,-0.68,-0.68,-0.16,1.52,0.49,0.0,1.0,3.0
3178,43.438897,t,380.0,254.0,135.0,69.0,511.0,262.0,497.0,511.0,5.23,-8.26,-0.72,6.69,-41.38,-6.62,0.08,-0.46,-0.67,-0.67,0.43,0.67,-0.23,0.0,1.0,3.0
3179,43.45496,t,390.0,260.0,135.0,69.0,511.0,258.0,496.0,511.0,5.24,-8.24,-0.77,10.44,-37.38,-9.13,0.08,-0.47,-0.67,-0.67,0.58,0.33,-0.01,0.0,1.0,3.0
3180,43.469962,t,395.0,264.0,126.0,69.0,511.0,259.0,485.0,511.0,5.25,-8.24,-0.78,13.81,-34.19,-11.06,0.08,-0.47,-0.67,-0.67,0.79,0.27,0.3,0.0,1.0,3.0
3181,43.484967,t,402.0,269.0,124.0,69.0,511.0,267.0,478.0,511.0,5.27,-8.23,-0.79,15.88,-31.25,-13.25,0.09,-0.47,-0.67,-0.67,1.05,0.79,0.53,0.0,1.0,3.0
3182,43.499,t,400.0,274.0,122.0,70.0,511.0,279.0,486.0,511.0,5.29,-8.21,-0.79,14.81,-27.87,-16.94,0.09,-0.48,-0.67,-0.67,0.65,1.04,1.02,0.0,1.0,3.0
3183,43.515107,t,401.0,286.0,112.0,69.0,511.0,284.0,415.0,469.0,5.42,-8.12,-0.82,-0.37,-14.94,-42.75,0.08,-0.48,-0.67,-0.67,0.32,0.98,2.25,0.0,1.0,3.0
3184,43.529228,t,392.0,281.0,107.0,69.0,511.0,284.0,398.0,478.0,5.5,-8.07,-0.85,-12.13,-8.81,-57.81,0.08,-0.48,-0.67,-0.67,0.1,1.04,2.37,0.0,1.0,3.0
3185,43.544307,t,400.0,271.0,100.0,70.0,511.0,292.0,376.0,474.0,5.6,-7.99,-0.89,-26.81,-3.69,-75.06,0.07,-0.49,-0.67,-0.67,0.27,0.48,1.78,0.0,1.0,3.0
3186,43.559407,t,410.0,307.0,102.0,69.0,511.0,302.0,359.0,433.0,5.72,-7.9,-0.94,-2.69,2.94,-92.0,0.06,-0.5,-0.67,-0.67,4.28,-3.77,-3.78,0.0,1.0,3.0
3187,43.574526,t,420.0,355.0,99.0,69.0,495.0,314.0,338.0,397.0,6.1,-7.62,-0.83,22.75,23.06,-98.37,0.05,-0.5,-0.67,-0.67,5.45,-2.25,5.77,0.0,1.0,3.0
3188,43.589613,t,402.0,360.0,100.0,67.0,433.0,299.0,331.0,375.0,6.24,-7.52,-0.78,26.69,17.81,-103.25,0.05,-0.51,-0.68,-0.68,6.78,-3.98,1.88,0.0,1.0,3.0
3189,43.604656,t,378.0,370.0,108.0,68.0,406.0,289.0,346.0,368.0,6.37,-7.41,-0.73,38.25,0.0,-101.37,0.04,-0.52,-0.68,-0.68,7.37,-0.5,3.3,0.0,1.0,3.0
3190,43.619729,t,372.0,380.0,133.0,69.0,356.0,272.0,343.0,377.0,6.63,-7.19,-0.64,15.0,13.25,-101.94,0.02,-0.52,-0.68,-0.68,3.38,1.05,1.22,0.0,1.0,3.0
3191,43.634732,t,381.0,398.0,129.0,68.0,350.0,273.0,342.0,377.0,6.88,-6.95,-0.58,1.69,16.75,-99.94,0.02,-0.53,-0.69,-0.69,2.9,0.8,0.86,0.0,1.0,3.0
3192,43.649794,t,398.0,411.0,130.0,69.0,345.0,276.0,340.0,374.0,7.0,-6.83,-0.56,-5.31,25.44,-99.12,0.01,-0.53,-0.69,-0.69,2.56,0.21,1.1,0.0,1.0,3.0
3193,43.664797,t,395.0,432.0,127.0,69.0,338.0,276.0,339.0,364.0,7.12,-6.71,-0.53,-1.62,28.87,-101.5,0.0,-0.53,-0.69,-0.69,2.96,-0.52,1.81,0.0,1.0,3.0
3194,43.67894,t,388.0,441.0,134.0,69.0,326.0,267.0,317.0,365.0,7.48,-6.32,-0.36,33.81,21.81,-104.62,0.02,0.54,0.69,0.69,2.84,-0.72,1.58,0.0,1.0,3.0
3195,43.694943,t,383.0,453.0,135.0,68.0,312.0,259.0,309.0,362.0,7.59,-6.19,-0.29,37.19,22.31,-101.75,0.02,0.54,0.7,0.7,1.99,0.39,0.88,0.0,1.0,3.0
3196,43.708993,t,383.0,464.0,135.0,69.0,305.0,253.0,304.0,360.0,7.7,-6.06,-0.23,34.75,21.5,-99.44,0.03,0.54,0.7,0.7,0.52,2.05,0.38,0.0,1.0,3.0
3197,43.724038,t,377.0,460.0,134.0,69.0,299.0,259.0,312.0,369.0,7.8,-5.93,-0.17,30.12,19.5,-99.31,0.04,0.55,0.7,0.7,0.13,2.19,0.27,0.0,1.0,3.0
3198,43.739121,t,387.0,463.0,132.0,68.0,284.0,248.0,301.0,357.0,8.0,-5.65,-0.09,16.19,14.13,-103.25,0.05,0.55,0.7,0.7,0.56,1.65,-0.01,0.0,1.0,3.0
3199,43.754275,t,393.0,460.0,138.0,68.0,280.0,237.0,291.0,356.0,8.21,-5.35,-0.04,8.5,9.06,-111.44,0.06,0.56,0.7,0.7,1.01,1.36,-0.02,0.0,1.0,3.0
3200,43.769462,t,397.0,460.0,136.0,68.0,281.0,234.0,280.0,356.0,8.32,-5.18,-0.03,5.31,6.44,-113.37,0.08,0.56,0.7,0.7,1.1,1.5,-0.03,0.0,1.0,3.0
3201,43.784578,t,398.0,457.0,138.0,69.0,278.0,233.0,276.0,363.0,8.42,-5.02,-0.02,-1.06,6.69,-112.06,0.08,0.57,0.7,0.7,0.61,1.01,-0.81,0.0,1.0,3.0
3202,43.799658,t,402.0,454.0,139.0,68.0,272.0,233.0,268.0,367.0,8.6,-4.7,0.0,-3.06,5.0,-109.5,0.09,0.57,0.7,0.7,0.53,0.66,-0.74,0.0,1.0,3.0
3203,43.81472,t,401.0,461.0,141.0,72.0,274.0,234.0,262.0,369.0,8.69,-4.38,-0.01,-6.31,0.94,-105.81,0.11,0.58,0.7,0.7,0.21,0.42,-0.03,0.0,1.0,3.0
3204,43.829804,t,405.0,461.0,145.0,78.0,274.0,225.0,264.0,365.0,8.85,-4.22,-0.01,-7.69,2.44,-104.31,0.12,0.58,0.7,0.7,0.06,0.8,-0.26,0.0,1.0,3.0
3205,43.844808,t,408.0,455.0,151.0,79.0,272.0,222.0,260.0,366.0,8.99,-3.9,-0.01,-7.5,5.75,-105.25,0.13,0.59,0.69,0.69,0.0,0.7,-0.15,0.0,1.0,3.0
3206,43.859838,t,411.0,445.0,157.0,80.0,273.0,219.0,257.0,364.0,9.06,-3.73,-0.01,-9.0,6.44,-105.5,0.13,0.59,0.69,0.69,-0.39,0.11,-0.05,0.0,1.0,3.0
3207,43.874915,t,412.0,446.0,158.0,81.0,270.0,213.0,254.0,363.0,9.13,-3.57,-0.01,-9.0,4.19,-103.12,0.15,0.6,0.69,0.69,-0.45,-0.73,-0.17,0.0,1.0,3.0
3208,43.889004,t,418.0,442.0,164.0,79.0,265.0,191.0,250.0,368.0,9.18,-3.42,-0.01,-0.44,-1.69,-79.94,0.16,0.6,0.69,0.69,-1.08,-2.02,-0.55,0.0,1.0,3.0
3209,43.904086,t,422.0,439.0,178.0,77.0,246.0,175.0,242.0,364.0,9.32,-3.03,0.0,11.63,-1.44,-72.44,0.16,0.6,0.69,0.69,-1.63,-1.76,-0.42,0.0,1.0,3.0
3210,43.920168,t,421.0,446.0,183.0,77.0,235.0,167.0,235.0,362.0,9.35,-2.93,-0.01,15.13,-6.44,-64.62,0.17,0.61,0.69,0.69,-1.74,-1.53,-0.21,0.0,1.0,3.0
3211,43.934241,t,421.0,440.0,195.0,77.0,225.0,150.0,229.0,364.0,9.38,-2.83,0.0,30.25,-11.94,-58.69,0.17,0.61,0.69,0.69,-3.11,0.0,-0.71,0.0,1.0,3.0
3212,43.949274,t,417.0,432.0,208.0,78.0,208.0,142.0,216.0,362.0,9.44,-2.65,-0.02,34.19,-20.0,-58.19,0.17,0.61,0.68,0.68,-2.61,0.25,-0.4,0.0,1.0,3.0
3213,43.964484,t,390.0,428.0,224.0,78.0,194.0,123.0,204.0,346.0,9.49,-2.45,-0.06,43.88,-26.5,-61.06,0.18,0.63,0.68,0.68,-2.57,1.01,-0.4,0.0,1.0,3.0
3214,43.979591,t,382.0,424.0,238.0,77.0,185.0,117.0,204.0,338.0,9.51,-2.35,-0.09,35.88,-24.25,-58.63,0.18,0.63,0.68,0.68,-2.07,0.69,-0.16,0.0,1.0,3.0
3215,43.99465,t,381.0,410.0,243.0,76.0,174.0,116.0,206.0,342.0,9.56,-2.16,-0.14,29.75,-19.62,-55.44,0.18,0.63,0.68,0.68,-2.24,0.05,-0.35,0.0,1.0,3.0
3216,44.009712,t,386.0,407.0,256.0,75.0,168.0,120.0,208.0,334.0,9.58,-2.08,-0.15,22.75,-14.63,-50.56,0.18,0.63,0.68,0.68,-1.89,-0.08,-0.07,0.0,1.0,3.0
3217,44.024715,t,382.0,411.0,265.0,76.0,158.0,122.0,213.0,333.0,9.59,-2.0,-0.17,13.25,-11.94,-47.38,0.18,0.64,0.68,0.68,-1.91,-0.21,-0.09,0.0,1.0,3.0
3218,44.039746,t,396.0,407.0,271.0,79.0,153.0,126.0,231.0,346.0,9.63,-1.79,-0.23,-8.06,-13.5,-41.75,0.19,0.64,0.67,0.67,-1.38,-0.48,-0.64,0.0,1.0,3.0
3219,44.054774,t,418.0,404.0,292.0,78.0,152.0,132.0,266.0,351.0,9.65,-1.72,-0.26,-9.75,-14.38,-42.06,0.19,0.64,0.67,0.67,-1.12,-0.58,-0.77,0.0,1.0,3.0
3220,44.069802,t,422.0,400.0,297.0,80.0,153.0,136.0,275.0,353.0,9.66,-1.65,-0.28,-8.88,-12.56,-43.44,0.2,0.65,0.67,0.67,-1.01,-0.76,-0.68,0.0,1.0,3.0
3221,44.084834,t,436.0,411.0,301.0,81.0,151.0,135.0,278.0,368.0,9.67,-1.57,-0.3,2.25,-6.12,-48.0,0.2,0.65,0.67,0.67,-0.94,-2.13,-1.19,0.0,1.0,3.0
3222,44.098867,t,447.0,417.0,306.0,76.0,151.0,139.0,289.0,376.0,9.69,-1.41,-0.32,2.25,-6.12,-48.0,0.21,0.65,0.66,0.66,-0.64,-2.69,-1.69,0.0,1.0,3.0
3223,44.113956,t,459.0,433.0,319.0,77.0,152.0,149.0,314.0,398.0,9.72,-1.25,-0.33,51.69,-7.0,-51.38,0.21,0.66,0.66,0.66,0.83,-2.67,-1.9,0.0,1.0,3.0
3224,44.128987,t,468.0,443.0,323.0,77.0,151.0,144.0,308.0,398.0,9.73,-1.17,-0.33,68.56,-5.19,-52.69,0.21,0.66,0.66,0.66,2.96,-1.43,-1.01,0.0,1.0,3.0
3225,44.14399,t,472.0,438.0,326.0,76.0,155.0,145.0,319.0,399.0,9.75,-0.99,-0.32,76.69,-2.44,-54.63,0.21,0.66,0.66,0.66,3.58,-0.78,0.33,0.0,1.0,3.0
3226,44.159049,t,473.0,433.0,326.0,75.0,162.0,146.0,323.0,403.0,9.76,-0.89,-0.29,79.44,9.25,-64.87,0.21,0.66,0.67,0.67,3.63,-0.56,-0.01,0.0,1.0,3.0
3227,44.174159,t,473.0,422.0,324.0,74.0,162.0,146.0,316.0,402.0,9.77,-0.69,-0.21,60.94,20.37,-56.44,0.21,0.67,0.67,0.67,3.27,-0.45,-0.18,0.0,1.0,3.0
3228,44.189273,t,470.0,441.0,319.0,74.0,163.0,147.0,309.0,393.0,9.78,-0.62,-0.17,52.19,25.19,-42.69,0.21,0.67,0.67,0.67,2.64,-0.18,-0.76,0.0,1.0,3.0
3229,44.20437,t,469.0,441.0,312.0,74.0,161.0,146.0,294.0,383.0,9.79,-0.54,-0.08,35.56,24.25,-21.56,0.21,0.67,0.67,0.67,3.28,-0.28,-0.94,0.0,1.0,3.0
3230,44.219451,t,453.0,414.0,282.0,75.0,161.0,141.0,268.0,362.0,9.79,-0.53,0.01,11.94,29.81,5.87,0.21,0.66,0.68,0.68,3.3,-2.09,-0.35,0.0,1.0,3.0
3231,44.234557,t,442.0,375.0,260.0,75.0,164.0,138.0,248.0,359.0,9.78,-0.57,0.06,0.0,29.75,24.25,0.2,0.66,0.68,0.68,3.55,-2.52,-0.27,0.0,1.0,3.0
3232,44.249677,t,416.0,336.0,228.0,77.0,175.0,136.0,226.0,339.0,9.78,-0.64,0.12,-13.06,28.12,50.06,0.2,0.66,0.68,0.68,4.0,-3.14,-0.28,0.0,1.0,3.0
3233,44.26468,t,382.0,294.0,185.0,76.0,181.0,125.0,214.0,316.0,9.76,-0.82,0.2,-22.31,27.44,58.06,0.2,0.65,0.69,0.69,4.78,-3.35,0.43,0.0,1.0,3.0
3234,44.279713,t,352.0,269.0,164.0,80.0,198.0,124.0,206.0,302.0,9.75,-0.93,0.25,-37.56,35.94,76.62,0.2,0.64,0.69,0.69,5.29,-3.49,0.54,0.0,1.0,3.0
3235,44.294716,t,283.0,232.0,132.0,78.0,211.0,119.0,190.0,278.0,9.72,-1.22,0.36,-78.56,41.69,91.75,0.2,0.63,0.69,0.69,5.32,-3.52,1.63,0.0,1.0,3.0
3236,44.30972,t,265.0,206.0,119.0,78.0,220.0,118.0,196.0,263.0,9.69,-1.41,0.42,-91.87,49.44,112.44,0.2,0.62,0.7,0.7,3.23,-3.29,0.55,0.0,1.0,3.0
3237,44.324723,t,259.0,188.0,119.0,76.0,222.0,129.0,202.0,259.0,9.65,-1.65,0.49,-129.06,63.63,150.81,0.2,0.61,0.7,0.7,2.35,-4.13,-1.76,0.0,1.0,3.0
3238,44.339123,t,266.0,180.0,129.0,74.0,231.0,157.0,210.0,262.0,9.47,-2.42,0.7,-88.69,74.19,142.37,0.19,0.59,0.71,0.71,0.47,-4.16,-4.31,0.0,1.0,3.0
3239,44.3545,t,309.0,200.0,141.0,69.0,250.0,162.0,228.0,271.0,9.41,-2.63,0.81,2.25,67.06,126.81,0.19,0.58,0.71,0.71,0.29,-2.26,-2.86,0.0,1.0,3.0
3240,44.369647,t,360.0,214.0,154.0,70.0,282.0,167.0,254.0,314.0,9.34,-2.82,0.91,74.81,39.88,129.0,0.18,0.58,0.72,0.72,0.7,-1.67,-0.93,0.0,1.0,3.0
3241,44.38465,t,408.0,230.0,162.0,69.0,302.0,157.0,248.0,328.0,9.27,-3.02,0.99,94.0,23.81,134.06,0.15,0.57,0.73,0.73,1.16,-3.42,2.02,0.0,1.0,3.0
3242,44.399679,t,453.0,271.0,166.0,70.0,330.0,159.0,247.0,352.0,9.0,-3.7,1.16,49.75,9.69,161.69,0.13,0.56,0.74,0.74,0.97,-2.92,2.94,0.0,1.0,3.0
3243,44.414711,t,442.0,276.0,162.0,68.0,333.0,159.0,248.0,336.0,8.89,-3.95,1.19,39.0,4.0,171.62,0.12,0.55,0.74,0.74,0.25,-2.92,2.25,0.0,1.0,3.0
3244,44.429773,t,414.0,275.0,161.0,69.0,346.0,158.0,254.0,328.0,8.77,-4.22,1.19,30.19,-12.56,177.5,0.09,0.55,0.74,0.74,2.39,-0.11,0.86,0.0,1.0,3.0
3245,44.444777,t,405.0,272.0,158.0,69.0,368.0,161.0,260.0,319.0,8.49,-4.75,1.18,30.06,-16.69,186.81,0.08,0.54,0.74,0.74,1.96,3.39,0.63,0.0,1.0,3.0
3246,44.458832,t,386.0,268.0,137.0,69.0,377.0,195.0,258.0,334.0,8.18,-5.27,1.18,-1.94,-2.06,177.94,0.06,0.53,0.75,0.75,2.3,5.42,1.82,0.0,1.0,3.0
3247,44.474863,t,383.0,276.0,131.0,69.0,381.0,212.0,264.0,344.0,8.02,-5.51,1.15,-38.75,3.56,166.06,0.05,0.52,0.75,0.75,2.94,5.24,2.26,0.0,1.0,3.0
3248,44.488893,t,383.0,280.0,115.0,69.0,385.0,220.0,270.0,361.0,7.87,-5.73,1.09,-73.12,8.69,154.37,0.04,0.51,0.74,0.74,2.2,2.6,1.28,0.0,1.0,3.0
3249,44.504983,t,381.0,292.0,116.0,70.0,387.0,233.0,278.0,378.0,7.57,-6.15,0.92,-83.5,-2.56,144.87,0.03,0.5,0.74,0.74,0.03,1.34,-0.99,0.0,1.0,3.0
3250,44.519117,t,383.0,298.0,122.0,68.0,386.0,263.0,276.0,370.0,7.26,-6.54,0.78,-40.13,-14.38,144.69,0.02,0.49,0.73,0.73,-0.54,4.47,1.44,0.0,1.0,3.0
3251,44.534222,t,386.0,330.0,122.0,69.0,387.0,274.0,276.0,362.0,7.1,-6.72,0.71,-48.13,-11.81,139.69,0.01,0.48,0.73,0.73,-0.74,4.68,2.31,0.0,1.0,3.0
3252,44.549446,t,380.0,331.0,125.0,68.0,390.0,286.0,282.0,356.0,6.8,-7.04,0.54,-63.63,-7.12,123.44,0.0,0.48,0.73,0.73,-2.49,4.62,2.17,0.0,1.0,3.0
3253,44.564641,t,370.0,326.0,130.0,68.0,394.0,292.0,296.0,350.0,6.66,-7.18,0.47,-54.38,-9.81,114.56,0.0,-0.47,-0.72,-0.72,-2.36,4.78,1.27,0.0,1.0,3.0
3254,44.579671,t,362.0,317.0,131.0,69.0,400.0,298.0,306.0,354.0,6.53,-7.3,0.28,-57.94,-19.44,97.62,0.01,-0.46,-0.72,-0.72,-2.91,4.56,0.57,0.0,1.0,3.0
3255,44.594714,t,364.0,317.0,142.0,68.0,426.0,308.0,332.0,355.0,6.29,-7.51,0.18,-65.62,-25.25,79.81,0.02,-0.46,-0.71,-0.71,-3.39,5.33,0.36,0.0,1.0,3.0
3256,44.609718,t,358.0,310.0,140.0,69.0,442.0,307.0,340.0,364.0,6.1,-7.67,-0.04,-70.0,-26.31,70.56,0.02,-0.46,-0.71,-0.71,-2.96,5.46,0.39,0.0,1.0,3.0
3257,44.624757,t,364.0,302.0,126.0,70.0,458.0,314.0,354.0,379.0,6.01,-7.74,-0.16,-72.75,-24.19,62.44,0.02,-0.45,-0.7,-0.7,-2.46,5.27,0.29,0.0,1.0,3.0
3258,44.63976,t,369.0,298.0,131.0,69.0,465.0,316.0,359.0,414.0,5.93,-7.79,-0.28,-70.06,-21.56,57.19,0.02,-0.45,-0.7,-0.7,-1.58,4.49,0.44,0.0,1.0,3.0
3259,44.654886,t,373.0,280.0,130.0,70.0,480.0,318.0,368.0,440.0,5.73,-7.93,-0.55,-42.06,-13.81,46.06,0.03,-0.45,-0.69,-0.69,-1.47,4.3,0.72,0.0,1.0,3.0
3260,44.669919,t,370.0,266.0,129.0,68.0,494.0,314.0,372.0,438.0,5.67,-7.97,-0.6,-32.94,-11.75,40.69,0.03,-0.45,-0.68,-0.68,-1.83,4.19,0.65,0.0,1.0,3.0
3261,44.684983,t,374.0,260.0,130.0,68.0,511.0,314.0,377.0,445.0,5.62,-8.0,-0.65,-27.0,-10.88,34.63,0.03,-0.45,-0.68,-0.68,-1.97,4.0,0.31,0.0,1.0,3.0
3262,44.698986,t,374.0,258.0,133.0,68.0,511.0,311.0,394.0,466.0,5.58,-8.03,-0.69,-23.25,-12.19,28.5,0.03,-0.45,-0.68,-0.68,-2.22,3.51,0.03,0.0,1.0,3.0
3263,44.715038,t,369.0,253.0,134.0,69.0,511.0,318.0,462.0,511.0,5.52,-8.06,-0.78,-16.0,-19.0,12.44,0.04,-0.45,-0.68,-0.68,-2.18,2.72,-0.86,0.0,1.0,3.0
3264,44.729084,t,374.0,253.0,133.0,68.0,511.0,300.0,447.0,511.0,5.49,-8.07,-0.87,-21.25,-20.06,6.06,0.04,-0.45,-0.67,-0.67,-2.01,2.7,-0.72,0.0,1.0,3.0
3265,44.745114,t,374.0,253.0,134.0,69.0,511.0,311.0,489.0,511.0,5.48,-8.07,-0.93,-28.94,-20.56,-0.37,0.04,-0.45,-0.67,-0.67,-1.18,2.16,-0.33,0.0,1.0,3.0
3266,44.759238,t,389.0,260.0,131.0,68.0,511.0,298.0,486.0,511.0,5.5,-8.04,-1.05,-32.25,-18.94,-11.56,0.04,-0.45,-0.67,-0.67,-0.47,1.38,0.0,0.0,1.0,3.0
3267,44.774277,t,396.0,266.0,127.0,69.0,511.0,303.0,486.0,511.0,5.52,-8.02,-1.11,-28.94,-17.5,-16.56,0.03,-0.45,-0.66,-0.66,-0.04,0.95,0.18,0.0,1.0,3.0
3268,44.78934,t,405.0,272.0,131.0,69.0,511.0,301.0,457.0,495.0,5.55,-7.99,-1.16,-26.0,-11.56,-28.0,0.03,-0.46,-0.66,-0.66,0.69,0.18,0.19,0.0,1.0,3.0
3269,44.804343,t,410.0,284.0,117.0,69.0,511.0,308.0,420.0,454.0,5.63,-7.92,-1.25,-25.06,-6.25,-35.81,0.03,-0.46,-0.66,-0.66,0.69,-0.03,0.67,0.0,1.0,3.0
3270,44.819489,t,409.0,300.0,109.0,69.0,511.0,309.0,386.0,440.0,5.77,-7.81,-1.31,-23.19,3.0,-58.25,0.02,-0.47,-0.66,-0.66,1.49,0.26,0.53,0.0,1.0,3.0
3271,44.835576,t,419.0,325.0,107.0,69.0,511.0,312.0,383.0,453.0,5.88,-7.73,-1.33,-23.12,11.94,-73.37,0.01,-0.47,-0.66,-0.66,1.8,-0.88,-0.26,0.0,1.0,3.0
3272,44.849614,t,434.0,346.0,105.0,69.0,511.0,312.0,377.0,430.0,6.0,-7.63,-1.35,-19.44,23.81,-94.69,0.0,0.48,0.66,0.66,4.46,-7.07,-4.4,0.0,1.0,3.0
3273,44.864643,t,450.0,401.0,101.0,68.0,494.0,311.0,338.0,391.0,6.35,-7.36,-1.26,36.88,10.0,-81.06,0.01,0.48,0.66,0.66,6.24,-4.31,2.76,0.0,1.0,3.0
3274,44.879671,t,428.0,413.0,100.0,68.0,472.0,306.0,335.0,371.0,6.46,-7.27,-1.18,47.06,23.87,-83.56,0.01,0.49,0.66,0.66,7.27,-3.61,4.37,0.0,1.0,3.0
3275,44.894703,t,400.0,419.0,105.0,69.0,432.0,290.0,333.0,361.0,6.58,-7.19,-1.06,60.38,32.06,-88.44,0.02,0.49,0.67,0.67,8.03,-1.64,3.53,0.0,1.0,3.0
3276,44.909736,t,382.0,407.0,112.0,69.0,402.0,274.0,347.0,362.0,6.69,-7.09,-0.96,40.69,13.13,-94.44,0.03,0.5,0.67,0.67,5.52,-0.08,3.57,0.0,1.0,3.0
3277,44.924739,t,390.0,402.0,133.0,68.0,359.0,265.0,349.0,391.0,7.04,-6.76,-0.87,-9.06,9.38,-95.81,0.04,0.5,0.67,0.67,2.23,2.81,1.75,0.0,1.0,3.0
3278,44.938823,t,407.0,410.0,138.0,68.0,340.0,266.0,344.0,395.0,7.15,-6.64,-0.88,-26.75,13.44,-94.62,0.04,0.51,0.67,0.67,1.51,2.42,1.63,0.0,1.0,3.0
3279,44.954853,t,413.0,430.0,138.0,69.0,342.0,271.0,340.0,390.0,7.26,-6.52,-0.91,-43.75,18.12,-95.25,0.05,0.51,0.67,0.67,1.6,1.5,0.91,0.0,1.0,3.0
3280,44.968885,t,418.0,427.0,137.0,68.0,336.0,271.0,341.0,386.0,7.37,-6.39,-0.93,-49.69,28.12,-95.44,0.07,0.51,0.67,0.67,1.36,0.41,1.26,0.0,1.0,3.0
3281,44.984888,t,404.0,441.0,133.0,69.0,343.0,271.0,336.0,385.0,7.6,-6.12,-0.9,-19.06,36.5,-103.44,0.08,0.52,0.67,0.67,2.9,-3.25,1.92,0.0,1.0,3.0
3282,44.998982,t,391.0,457.0,135.0,68.0,318.0,259.0,314.0,376.0,7.83,-5.84,-0.76,30.5,40.25,-106.12,0.09,0.52,0.67,0.67,2.35,-0.53,0.9,0.0,1.0,3.0
3283,45.015036,t,390.0,465.0,141.0,68.0,304.0,254.0,313.0,366.0,7.93,-5.71,-0.67,38.25,38.0,-98.19,0.1,0.53,0.68,0.68,1.82,0.69,0.72,0.0,1.0,3.0
3284,45.029123,t,401.0,469.0,141.0,69.0,296.0,250.0,311.0,365.0,8.11,-5.48,-0.51,35.56,28.12,-83.44,0.11,0.53,0.68,0.68,0.37,1.77,0.63,0.0,1.0,3.0
3285,45.044197,t,404.0,466.0,142.0,68.0,292.0,250.0,311.0,366.0,8.19,-5.37,-0.45,31.56,24.12,-84.5,0.11,0.53,0.68,0.68,-0.1,2.18,0.46,0.0,1.0,3.0
3286,45.059404,t,407.0,465.0,146.0,69.0,282.0,244.0,308.0,369.0,8.35,-5.12,-0.35,16.31,18.37,-90.81,0.13,0.54,0.68,0.68,0.08,2.41,0.4,0.0,1.0,3.0
3287,45.07563,t,414.0,469.0,147.0,68.0,279.0,243.0,304.0,372.0,8.51,-4.84,-0.3,-3.0,18.69,-94.62,0.14,0.54,0.68,0.68,-0.02,3.21,0.04,0.0,1.0,3.0
3288,45.089664,t,413.0,476.0,146.0,68.0,277.0,237.0,302.0,374.0,8.59,-4.7,-0.28,-14.06,16.94,-96.62,0.14,0.54,0.68,0.68,0.14,2.98,-0.13,0.0,1.0,3.0
3289,45.104667,t,418.0,485.0,143.0,68.0,276.0,233.0,300.0,376.0,8.67,-4.55,-0.28,-26.44,15.81,-98.06,0.15,0.55,0.68,0.68,0.05,2.71,0.34,0.0,1.0,3.0
3290,45.119781,t,423.0,485.0,142.0,69.0,278.0,233.0,296.0,376.0,8.75,-4.4,-0.29,-41.06,14.06,-99.19,0.17,0.55,0.68,0.68,0.01,1.71,-0.23,0.0,1.0,3.0
3291,45.135784,t,430.0,486.0,158.0,73.0,282.0,234.0,282.0,376.0,8.97,-3.93,-0.35,-59.38,14.75,-102.56,0.19,0.56,0.67,0.67,0.15,0.3,-0.3,0.0,1.0,3.0
3292,45.149787,t,442.0,494.0,163.0,78.0,282.0,233.0,282.0,377.0,9.04,-3.77,-0.36,-58.38,17.31,-100.94,0.2,0.56,0.67,0.67,0.19,-0.14,-0.47,0.0,1.0,3.0
3293,45.164791,t,447.0,498.0,166.0,79.0,282.0,234.0,280.0,379.0,9.1,-3.61,-0.36,-54.63,19.06,-98.0,0.21,0.56,0.66,0.66,-0.14,-0.39,-0.3,0.0,1.0,3.0
3294,45.17983,t,446.0,502.0,169.0,79.0,283.0,234.0,281.0,379.0,9.16,-3.46,-0.37,-49.0,18.0,-91.44,0.22,0.56,0.66,0.66,-0.25,-1.13,-0.41,0.0,1.0,3.0
3295,45.194834,t,450.0,506.0,184.0,79.0,283.0,225.0,278.0,383.0,9.31,-3.04,-0.35,-43.69,23.06,-80.37,0.24,0.57,0.65,0.65,-0.75,-1.34,-0.92,0.0,1.0,3.0
3296,45.209863,t,455.0,503.0,186.0,79.0,278.0,224.0,275.0,388.0,9.35,-2.92,-0.33,-42.0,26.31,-74.69,0.25,0.57,0.65,0.65,-1.57,-1.65,-1.01,0.0,1.0,3.0
3297,45.224893,t,452.0,498.0,197.0,78.0,273.0,219.0,271.0,391.0,9.39,-2.8,-0.31,-35.56,19.44,-66.19,0.26,0.57,0.65,0.65,-1.86,-1.4,-1.36,0.0,1.0,3.0
3298,45.238898,t,453.0,498.0,201.0,76.0,270.0,210.0,268.0,390.0,9.45,-2.59,-0.28,-29.62,13.94,-63.69,0.26,0.57,0.64,0.64,-0.62,-1.45,-1.43,0.0,1.0,3.0
3299,45.254953,t,450.0,490.0,207.0,75.0,258.0,191.0,265.0,392.0,9.48,-2.49,-0.27,-23.37,12.94,-60.0,0.27,0.57,0.64,0.64,-1.32,-1.32,-1.27,0.0,1.0,3.0
3300,45.26904,t,445.0,480.0,216.0,77.0,253.0,174.0,258.0,382.0,9.5,-2.39,-0.27,-11.25,-8.69,-57.31,0.28,0.58,0.64,0.64,-1.67,-0.35,-0.84,0.0,1.0,3.0
3301,45.285094,t,444.0,484.0,232.0,75.0,229.0,163.0,240.0,376.0,9.57,-2.11,-0.33,-9.06,-14.56,-56.63,0.28,0.58,0.63,0.63,-1.56,-0.15,-0.81,0.0,1.0,3.0
3302,45.299239,t,444.0,478.0,237.0,75.0,218.0,153.0,230.0,373.0,9.58,-2.01,-0.37,-10.06,-21.0,-56.63,0.29,0.58,0.63,0.63,-1.13,-0.18,-0.67,0.0,1.0,3.0
3303,45.314385,t,447.0,472.0,234.0,76.0,209.0,144.0,220.0,368.0,9.6,-1.92,-0.41,-13.5,-24.06,-56.31,0.29,0.59,0.63,0.63,-0.64,-0.43,-0.32,0.0,1.0,3.0
3304,45.329558,t,436.0,465.0,239.0,75.0,203.0,142.0,214.0,371.0,9.62,-1.83,-0.45,-18.25,-20.44,-52.13,0.29,0.59,0.62,0.62,-0.59,-1.05,-0.1,0.0,1.0,3.0
3305,45.344611,t,443.0,475.0,248.0,75.0,196.0,127.0,214.0,378.0,9.66,-1.59,-0.55,-24.94,-11.25,-42.25,0.3,0.59,0.62,0.62,0.01,-1.49,0.39,0.0,1.0,3.0
3306,45.359657,t,453.0,473.0,244.0,76.0,190.0,123.0,217.0,381.0,9.67,-1.52,-0.57,-29.19,-4.81,-37.13,0.31,0.59,0.61,0.61,-0.06,-1.88,0.38,0.0,1.0,3.0
3307,45.374685,t,474.0,475.0,250.0,78.0,184.0,126.0,232.0,390.0,9.67,-1.46,-0.57,-32.81,6.37,-27.75,0.31,0.59,0.61,0.61,-0.58,-2.3,0.24,0.0,1.0,3.0
3308,45.389755,t,487.0,475.0,250.0,80.0,178.0,126.0,249.0,401.0,9.69,-1.37,-0.57,-32.31,7.25,-23.5,0.31,0.59,0.61,0.61,-0.53,-2.33,0.22,0.0,1.0,3.0
3309,45.404815,t,502.0,498.0,257.0,79.0,167.0,123.0,262.0,408.0,9.69,-1.33,-0.56,-30.12,7.87,-20.69,0.32,0.59,0.61,0.61,-0.49,-2.29,-0.01,0.0,1.0,3.0
3310,45.418847,t,507.0,511.0,272.0,79.0,164.0,123.0,278.0,412.0,9.7,-1.27,-0.55,-16.75,11.31,-14.06,0.32,0.59,0.61,0.61,-0.38,-2.59,-0.69,0.0,1.0,3.0
3311,45.43488,t,511.0,511.0,273.0,79.0,165.0,126.0,282.0,419.0,9.71,-1.23,-0.51,-8.19,13.0,-10.88,0.33,0.59,0.61,0.61,-0.53,-2.63,-0.98,0.0,1.0,3.0
3312,45.449938,t,511.0,511.0,275.0,80.0,167.0,131.0,286.0,422.0,9.71,-1.21,-0.49,2.06,12.13,-8.44,0.33,0.59,0.61,0.61,-0.64,-2.6,-1.27,0.0,1.0,3.0
3313,45.46497,t,511.0,511.0,282.0,78.0,165.0,135.0,286.0,421.0,9.72,-1.2,-0.47,12.44,10.94,-7.5,0.33,0.59,0.61,0.61,-0.89,-2.49,-1.1,0.0,1.0,3.0
3314,45.479098,t,511.0,511.0,285.0,80.0,165.0,141.0,291.0,430.0,9.72,-1.19,-0.45,22.56,5.87,-8.5,0.33,0.59,0.61,0.61,-0.75,-2.02,-1.42,0.0,1.0,3.0
3315,45.494213,t,511.0,511.0,297.0,78.0,177.0,141.0,293.0,432.0,9.73,-1.13,-0.41,30.81,7.25,-16.44,0.32,0.59,0.61,0.61,0.91,-1.06,-1.57,0.0,1.0,3.0
3316,45.509259,t,511.0,511.0,301.0,79.0,181.0,141.0,298.0,434.0,9.73,-1.1,-0.38,35.94,13.19,-22.62,0.32,0.6,0.61,0.61,1.03,-0.57,-1.22,0.0,1.0,3.0
3317,45.524383,t,511.0,511.0,306.0,73.0,182.0,142.0,304.0,438.0,9.74,-1.05,-0.34,40.25,20.5,-37.69,0.32,0.6,0.62,0.62,1.64,0.35,-0.67,0.0,1.0,3.0
3318,45.53946,t,511.0,511.0,311.0,73.0,187.0,144.0,302.0,440.0,9.75,-0.92,-0.25,41.88,25.31,-44.06,0.33,0.6,0.62,0.62,1.92,0.73,-0.15,0.0,1.0,3.0
3319,45.554548,t,511.0,511.0,307.0,72.0,191.0,142.0,300.0,439.0,9.76,-0.85,-0.21,38.31,24.44,-44.0,0.33,0.6,0.62,0.62,2.32,-0.16,-0.14,0.0,1.0,3.0
3320,45.569633,t,511.0,511.0,306.0,70.0,191.0,140.0,294.0,435.0,9.77,-0.72,-0.11,38.56,22.44,-28.56,0.33,0.6,0.62,0.62,2.12,-0.67,0.13,0.0,1.0,3.0
3321,45.584653,t,503.0,471.0,303.0,71.0,194.0,140.0,291.0,420.0,9.78,-0.63,-0.03,38.56,21.87,-24.19,0.33,0.6,0.62,0.62,2.41,-0.83,0.22,0.0,1.0,3.0
3322,45.599656,t,494.0,422.0,294.0,72.0,190.0,139.0,284.0,412.0,9.78,-0.6,0.01,37.75,23.94,-18.25,0.33,0.6,0.63,0.63,3.04,-1.28,0.01,0.0,1.0,3.0
3323,45.614734,t,478.0,376.0,282.0,74.0,191.0,139.0,263.0,402.0,9.78,-0.58,0.05,37.06,24.5,-11.94,0.33,0.61,0.63,0.63,3.4,-1.41,0.19,0.0,1.0,3.0
3324,45.629767,t,471.0,348.0,262.0,72.0,191.0,131.0,262.0,395.0,9.78,-0.57,0.09,25.81,23.06,2.94,0.33,0.6,0.63,0.63,3.96,-2.26,0.45,0.0,1.0,3.0
3325,45.644799,t,408.0,294.0,206.0,73.0,202.0,114.0,222.0,342.0,9.78,-0.64,0.21,21.31,20.75,25.75,0.32,0.6,0.64,0.64,3.93,-3.29,1.25,0.0,1.0,3.0
3326,45.659802,t,369.0,274.0,176.0,76.0,205.0,118.0,216.0,319.0,9.77,-0.71,0.25,14.25,24.12,40.06,0.32,0.6,0.64,0.64,4.04,-3.43,1.54,0.0,1.0,3.0
3327,45.674833,t,334.0,259.0,159.0,77.0,212.0,126.0,208.0,315.0,9.76,-0.81,0.31,-8.88,37.88,78.31,0.31,0.59,0.65,0.65,3.73,-5.86,1.3,0.0,1.0,3.0
3328,45.688836,t,310.0,239.0,146.0,79.0,218.0,130.0,209.0,300.0,9.73,-1.11,0.43,-22.0,41.25,98.44,0.31,0.59,0.65,0.65,3.36,-6.37,0.62,0.0,1.0,3.0
3329,45.703897,t,304.0,233.0,144.0,80.0,229.0,158.0,212.0,306.0,9.7,-1.3,0.52,-34.88,24.62,126.19,0.3,0.57,0.66,0.66,1.32,-6.54,-4.89,0.0,1.0,3.0
3330,45.718901,t,335.0,217.0,161.0,70.0,251.0,180.0,232.0,328.0,9.63,-1.71,0.56,55.56,36.13,116.0,0.29,0.56,0.67,0.67,0.14,-3.03,-5.63,0.0,1.0,3.0
3331,45.735934,t,363.0,234.0,160.0,69.0,268.0,183.0,248.0,336.0,9.55,-2.08,0.73,102.81,32.44,114.06,0.28,0.56,0.68,0.68,1.23,-1.5,-3.89,0.0,1.0,3.0
3332,45.748962,t,401.0,248.0,174.0,72.0,277.0,188.0,266.0,348.0,9.5,-2.27,0.82,105.56,31.44,125.94,0.27,0.56,0.69,0.69,1.51,-0.4,0.09,0.0,1.0,3.0
3333,45.764024,t,422.0,258.0,182.0,70.0,301.0,178.0,280.0,366.0,9.44,-2.48,0.89,73.75,20.87,138.62,0.24,0.55,0.7,0.7,1.48,-1.15,-0.05,0.0,1.0,3.0
3334,45.779098,t,468.0,273.0,183.0,70.0,323.0,159.0,276.0,376.0,9.37,-2.72,0.93,50.63,11.38,162.81,0.23,0.54,0.7,0.7,2.96,-3.2,1.35,0.0,1.0,3.0
3335,45.794102,t,467.0,281.0,178.0,70.0,352.0,168.0,272.0,360.0,9.08,-3.52,1.07,60.06,7.44,183.87,0.21,0.53,0.72,0.72,2.95,-1.35,1.11,0.0,1.0,3.0
3336,45.809097,t,442.0,286.0,177.0,72.0,368.0,183.0,273.0,359.0,8.96,-3.8,1.12,51.19,10.19,187.19,0.18,0.52,0.73,0.73,1.77,-1.35,0.88,0.0,1.0,3.0
3337,45.824108,t,432.0,295.0,176.0,73.0,395.0,195.0,279.0,359.0,8.7,-4.35,1.16,31.75,-5.25,184.25,0.17,0.51,0.73,0.73,-1.05,0.99,0.57,0.0,1.0,3.0
3338,45.83918,t,434.0,293.0,169.0,72.0,391.0,202.0,281.0,363.0,8.57,-4.61,1.16,13.75,-8.75,178.94,0.15,0.51,0.73,0.73,-1.49,2.39,1.16,0.0,1.0,3.0
3339,45.855184,t,417.0,286.0,165.0,70.0,383.0,225.0,295.0,375.0,8.43,-5.1,1.05,-58.56,-16.12,156.69,0.13,0.49,0.73,0.73,0.19,2.51,1.06,0.0,1.0,3.0
3340,45.869187,t,429.0,311.0,146.0,70.0,393.0,253.0,295.0,370.0,8.03,-5.56,0.85,-67.62,-29.94,156.75,0.12,0.49,0.73,0.73,1.05,0.66,-0.78,0.0,1.0,3.0
3341,45.884189,t,440.0,328.0,143.0,70.0,402.0,272.0,304.0,389.0,7.87,-5.78,0.75,-46.19,-37.31,160.37,0.11,0.48,0.73,0.73,1.44,-0.09,-1.92,0.0,1.0,3.0
3342,45.899263,t,439.0,351.0,139.0,70.0,417.0,283.0,303.0,390.0,7.71,-6.01,0.67,-26.12,-39.94,162.69,0.1,0.48,0.72,0.72,0.39,0.26,-1.08,0.0,1.0,3.0
3343,45.914378,t,436.0,361.0,141.0,70.0,434.0,301.0,310.0,396.0,7.55,-6.22,0.6,-19.75,-37.69,163.81,0.07,0.47,0.72,0.72,-0.04,1.27,-0.1,0.0,1.0,3.0
3344,45.929464,t,426.0,378.0,142.0,69.0,427.0,304.0,304.0,383.0,7.2,-6.63,0.49,-9.94,-29.37,154.25,0.06,0.46,0.72,0.72,-0.73,4.8,2.63,0.0,1.0,3.0
3345,45.944564,t,385.0,378.0,138.0,68.0,438.0,314.0,312.0,371.0,6.87,-6.97,0.42,-4.44,-29.37,138.94,0.04,0.46,0.72,0.72,-1.96,5.08,1.84,0.0,1.0,3.0
3346,45.959624,t,380.0,372.0,136.0,70.0,463.0,327.0,324.0,374.0,6.72,-7.12,0.36,-12.5,-33.06,129.31,0.03,0.45,0.72,0.72,-2.36,5.23,0.79,0.0,1.0,3.0
3347,45.974665,t,378.0,355.0,130.0,68.0,453.0,323.0,319.0,366.0,6.57,-7.26,0.29,-22.19,-40.25,118.56,0.02,0.45,0.71,0.71,-3.1,4.6,-0.11,0.0,1.0,3.0
3348,45.989123,t,375.0,339.0,120.0,69.0,470.0,328.0,343.0,377.0,6.21,-7.58,-0.03,-49.63,-53.38,86.06,0.01,0.44,0.71,0.71,-3.09,4.86,0.16,0.0,1.0,3.0
3349,46.004204,t,366.0,328.0,112.0,68.0,478.0,327.0,350.0,382.0,6.1,-7.67,-0.16,-50.06,-55.63,78.81,0.0,-0.44,-0.7,-0.7,-2.08,4.84,0.46,0.0,1.0,3.0
3350,46.019322,t,348.0,306.0,117.0,68.0,484.0,328.0,358.0,392.0,6.0,-7.74,-0.28,-46.06,-56.38,73.37,0.01,-0.44,-0.7,-0.7,-1.59,4.35,0.51,0.0,1.0,3.0
3351,46.035372,t,339.0,287.0,118.0,69.0,501.0,347.0,374.0,423.0,5.91,-7.81,-0.38,-37.69,-56.0,68.44,0.02,-0.44,-0.69,-0.69,-1.16,4.08,0.56,0.0,1.0,3.0
3352,46.049499,t,343.0,268.0,118.0,68.0,493.0,338.0,358.0,430.0,5.82,-7.87,-0.48,-21.94,-50.5,55.88,0.02,-0.44,-0.69,-0.69,-1.07,4.99,0.67,0.0,1.0,3.0
3353,46.064614,t,350.0,252.0,118.0,70.0,511.0,349.0,381.0,462.0,5.6,-8.01,-0.7,-17.25,-49.19,40.75,0.03,-0.45,-0.68,-0.68,-1.24,4.67,-0.38,0.0,1.0,3.0
3354,46.07966,t,350.0,246.0,115.0,67.0,511.0,329.0,377.0,460.0,5.55,-8.04,-0.76,-9.63,-50.75,33.63,0.03,-0.45,-0.68,-0.68,-1.77,3.92,-0.43,0.0,1.0,3.0
3355,46.094682,t,358.0,244.0,119.0,69.0,511.0,324.0,393.0,482.0,5.51,-8.06,-0.82,-6.31,-51.75,26.94,0.04,-0.45,-0.67,-0.67,-1.73,2.57,-0.57,0.0,1.0,3.0
3356,46.1098,t,358.0,234.0,120.0,69.0,511.0,306.0,425.0,511.0,5.43,-8.1,-1.0,-10.0,-47.94,6.5,0.05,-0.46,-0.67,-0.67,-0.98,2.56,-0.66,0.0,1.0,3.0
3357,46.124833,t,363.0,234.0,120.0,68.0,511.0,305.0,431.0,511.0,5.42,-8.09,-1.06,-14.19,-46.13,-0.31,0.05,-0.46,-0.67,-0.67,-0.6,2.11,-1.05,0.0,1.0,3.0
3358,46.139836,t,362.0,235.0,120.0,69.0,511.0,297.0,435.0,511.0,5.42,-8.08,-1.12,-14.44,-42.44,-8.5,0.05,-0.46,-0.66,-0.66,-0.37,1.48,-1.19,0.0,1.0,3.0
3359,46.154866,t,370.0,243.0,120.0,68.0,511.0,294.0,430.0,511.0,5.44,-8.07,-1.17,-10.94,-38.06,-16.81,0.05,-0.47,-0.66,-0.66,0.65,-0.05,-0.49,0.0,1.0,3.0
3360,46.169895,t,379.0,258.0,118.0,69.0,511.0,302.0,400.0,509.0,5.51,-8.01,-1.25,0.25,-25.31,-42.25,0.05,-0.47,-0.66,-0.66,0.88,-0.73,-0.43,0.0,1.0,3.0
3361,46.184926,t,390.0,265.0,115.0,68.0,511.0,290.0,372.0,463.0,5.63,-7.92,-1.29,6.5,-22.69,-52.44,0.05,-0.48,-0.66,-0.66,1.36,-1.18,-0.98,0.0,1.0,3.0
3362,46.199026,t,399.0,270.0,111.0,69.0,511.0,302.0,371.0,486.0,5.71,-7.86,-1.28,18.56,-15.0,-66.06,0.04,-0.49,-0.66,-0.66,3.56,-1.75,-2.8,0.0,1.0,3.0
3363,46.215046,t,419.0,294.0,102.0,68.0,465.0,292.0,325.0,433.0,5.89,-7.75,-1.18,59.0,-10.56,-69.5,0.04,-0.49,-0.66,-0.66,5.37,-1.22,-3.2,0.0,1.0,3.0
3364,46.229085,t,430.0,305.0,109.0,68.0,427.0,294.0,310.0,398.0,5.99,-7.67,-1.1,53.25,4.94,-80.19,0.03,-0.5,-0.67,-0.67,9.83,-3.39,2.45,0.0,1.0,3.0
3365,46.245172,t,445.0,312.0,110.0,68.0,407.0,292.0,319.0,390.0,6.26,-7.47,-1.0,30.87,10.69,-103.75,0.03,-0.5,-0.67,-0.67,8.97,-3.46,1.54,0.0,1.0,3.0
3366,46.259287,t,432.0,319.0,105.0,68.0,347.0,270.0,328.0,391.0,6.51,-7.26,-0.95,32.69,-20.06,-98.12,0.02,-0.51,-0.67,-0.67,6.38,0.2,3.78,0.0,1.0,3.0
3367,46.274494,t,420.0,340.0,114.0,69.0,329.0,266.0,325.0,392.0,6.63,-7.15,-0.92,32.63,-8.56,-101.62,0.01,-0.52,-0.67,-0.67,5.16,1.9,3.51,0.0,1.0,3.0
3368,46.289611,t,420.0,351.0,127.0,68.0,310.0,255.0,324.0,380.0,6.77,-7.03,-0.89,15.44,16.19,-115.44,0.01,-0.53,-0.68,-0.68,4.15,1.7,1.62,0.0,1.0,3.0
3369,46.304623,t,406.0,361.0,129.0,69.0,318.0,258.0,314.0,374.0,7.05,-6.76,-0.8,16.62,22.5,-119.5,0.0,0.53,0.68,0.68,4.41,-0.64,2.24,0.0,1.0,3.0
3370,46.319654,t,399.0,382.0,126.0,68.0,327.0,258.0,311.0,363.0,7.33,-6.47,-0.67,39.13,23.12,-120.19,0.01,0.54,0.68,0.68,5.13,-3.21,1.77,0.0,1.0,3.0
3371,46.334711,t,392.0,399.0,130.0,68.0,318.0,252.0,305.0,355.0,7.46,-6.33,-0.59,52.75,14.69,-113.69,0.02,0.55,0.69,0.69,5.12,-2.93,2.17,0.0,1.0,3.0
3372,46.349714,t,379.0,416.0,132.0,68.0,299.0,246.0,302.0,352.0,7.57,-6.2,-0.52,57.81,10.63,-100.94,0.03,0.55,0.69,0.69,3.82,0.65,3.09,0.0,1.0,3.0
3373,46.364717,t,381.0,426.0,136.0,69.0,292.0,243.0,298.0,355.0,7.66,-6.09,-0.44,57.06,11.06,-88.37,0.03,0.55,0.7,0.7,-0.19,3.62,0.83,0.0,1.0,3.0
3374,46.379746,t,382.0,445.0,137.0,68.0,282.0,233.0,297.0,342.0,7.93,-5.76,-0.23,34.63,21.37,-89.31,0.04,0.56,0.7,0.7,-0.65,3.51,0.89,0.0,1.0,3.0
3375,46.394777,t,378.0,453.0,137.0,70.0,280.0,238.0,297.0,346.0,8.02,-5.63,-0.18,21.06,20.81,-96.5,0.04,0.56,0.7,0.7,-0.85,3.09,0.6,0.0,1.0,3.0
3376,46.409822,t,386.0,465.0,140.0,68.0,270.0,227.0,289.0,344.0,8.12,-5.48,-0.15,8.44,18.62,-103.87,0.05,0.57,0.7,0.7,-0.87,2.78,0.37,0.0,1.0,3.0
3377,46.424855,t,393.0,470.0,136.0,68.0,266.0,229.0,274.0,347.0,8.33,-5.16,-0.13,-13.38,11.25,-113.94,0.06,0.57,0.7,0.7,-0.65,2.04,-0.26,0.0,1.0,3.0
3378,46.438883,t,405.0,464.0,121.0,68.0,274.0,228.0,268.0,350.0,8.52,-4.83,-0.16,-33.13,1.44,-113.06,0.08,0.58,0.7,0.7,-0.5,1.25,-0.33,0.0,1.0,3.0
3379,46.454887,t,421.0,464.0,113.0,68.0,276.0,226.0,266.0,352.0,8.61,-4.67,-0.2,-39.06,-1.19,-111.5,0.09,0.59,0.69,0.69,-0.1,0.45,-0.25,0.0,1.0,3.0
3380,46.46889,t,422.0,457.0,114.0,70.0,280.0,223.0,262.0,357.0,8.78,-4.34,-0.27,-45.44,-0.06,-107.0,0.1,0.59,0.69,0.69,0.07,-0.17,0.05,0.0,1.0,3.0
3381,46.484924,t,422.0,456.0,114.0,76.0,286.0,226.0,269.0,372.0,8.86,-4.18,-0.3,-43.31,1.62,-105.81,0.11,0.6,0.69,0.69,0.6,-0.04,-0.19,0.0,1.0,3.0
3382,46.498948,t,432.0,452.0,114.0,78.0,276.0,209.0,256.0,362.0,8.93,-4.02,-0.32,-38.13,4.37,-103.5,0.11,0.6,0.69,0.69,0.6,-0.21,-0.26,0.0,1.0,3.0
3383,46.515033,t,435.0,447.0,126.0,78.0,267.0,196.0,250.0,369.0,9.06,-3.71,-0.33,-23.75,8.75,-90.62,0.13,0.61,0.68,0.68,-1.23,-1.14,-0.55,0.0,1.0,3.0
3384,46.529178,t,430.0,434.0,123.0,78.0,262.0,191.0,244.0,370.0,9.17,-3.43,-0.34,-18.62,5.87,-85.12,0.14,0.61,0.68,0.68,-1.75,-1.07,-0.56,0.0,1.0,3.0
3385,46.544398,t,440.0,426.0,126.0,78.0,252.0,179.0,236.0,371.0,9.22,-3.3,-0.34,-14.94,2.06,-79.0,0.14,0.61,0.68,0.68,-1.87,-1.59,-0.72,0.0,1.0,3.0
3386,46.559575,t,452.0,415.0,126.0,77.0,240.0,175.0,231.0,372.0,9.26,-3.19,-0.35,-6.81,-3.0,-72.94,0.15,0.62,0.68,0.68,-2.04,-1.85,-0.89,0.0,1.0,3.0
3387,46.574662,t,463.0,396.0,131.0,78.0,240.0,161.0,229.0,375.0,9.3,-3.07,-0.36,3.44,-3.56,-68.44,0.15,0.62,0.68,0.68,-2.45,-0.57,-0.09,0.0,1.0,3.0
3388,46.589722,t,460.0,380.0,138.0,77.0,217.0,136.0,215.0,376.0,9.4,-2.75,-0.37,26.69,-10.5,-66.5,0.16,0.63,0.68,0.68,-2.8,0.31,-0.04,0.0,1.0,3.0
3389,46.604725,t,468.0,389.0,139.0,76.0,214.0,129.0,202.0,371.0,9.43,-2.64,-0.39,40.56,-23.56,-67.5,0.15,0.64,0.67,0.67,-2.21,0.94,-0.21,0.0,1.0,3.0
3390,46.619728,t,463.0,402.0,159.0,77.0,212.0,120.0,197.0,368.0,9.46,-2.53,-0.41,43.13,-29.94,-68.31,0.15,0.64,0.67,0.67,-1.44,1.0,-0.1,0.0,1.0,3.0
3391,46.634732,t,467.0,405.0,174.0,78.0,202.0,113.0,191.0,367.0,9.51,-2.32,-0.47,43.06,-33.06,-67.94,0.16,0.65,0.67,0.67,-0.62,0.39,-0.07,0.0,1.0,3.0
3392,46.649735,t,445.0,419.0,184.0,76.0,187.0,115.0,201.0,374.0,9.55,-2.11,-0.55,33.69,-28.69,-64.56,0.16,0.65,0.67,0.67,-0.57,-0.77,-0.05,0.0,1.0,3.0
3393,46.664767,t,465.0,430.0,190.0,76.0,185.0,121.0,208.0,374.0,9.57,-2.01,-0.57,26.37,-20.31,-61.19,0.16,0.66,0.67,0.67,-0.5,-1.34,-0.02,0.0,1.0,3.0
3394,46.6798,t,468.0,437.0,200.0,76.0,179.0,123.0,216.0,382.0,9.59,-1.92,-0.59,18.12,-15.56,-56.38,0.16,0.66,0.67,0.67,-0.64,-2.24,-0.07,0.0,1.0,3.0
3395,46.694822,t,481.0,423.0,207.0,76.0,163.0,123.0,241.0,392.0,9.62,-1.76,-0.61,1.56,-5.56,-47.38,0.16,0.66,0.66,0.66,-0.5,-2.59,0.45,0.0,1.0,3.0
3396,46.708882,t,492.0,429.0,227.0,77.0,158.0,129.0,267.0,418.0,9.65,-1.62,-0.62,-6.94,-1.12,-41.13,0.17,0.67,0.66,0.66,-0.26,-2.98,-0.09,0.0,1.0,3.0
3397,46.724885,t,486.0,437.0,236.0,81.0,154.0,133.0,283.0,425.0,9.66,-1.55,-0.62,-6.75,2.75,-38.75,0.17,0.67,0.66,0.66,-0.37,-3.41,-0.38,0.0,1.0,3.0
3398,46.738968,t,499.0,460.0,236.0,80.0,152.0,132.0,286.0,421.0,9.67,-1.49,-0.6,6.87,11.69,-34.75,0.18,0.67,0.66,0.66,-0.87,-3.9,-1.19,0.0,1.0,3.0
3399,46.753998,t,491.0,502.0,243.0,80.0,157.0,140.0,301.0,430.0,9.69,-1.34,-0.54,29.75,10.44,-25.37,0.18,0.67,0.66,0.66,-0.37,-3.44,-1.9,0.0,1.0,3.0
3400,46.7692,t,501.0,511.0,251.0,78.0,159.0,140.0,287.0,414.0,9.7,-1.31,-0.51,44.75,10.44,-21.19,0.18,0.67,0.67,0.67,-0.13,-2.78,-2.01,0.0,1.0,3.0
3401,46.784283,t,498.0,511.0,255.0,79.0,165.0,143.0,287.0,414.0,9.7,-1.28,-0.49,55.88,6.56,-18.94,0.18,0.67,0.67,0.67,0.88,-1.32,-2.07,0.0,1.0,3.0
3402,46.799421,t,489.0,511.0,260.0,79.0,176.0,151.0,286.0,406.0,9.71,-1.25,-0.46,55.88,7.44,-20.75,0.17,0.67,0.67,0.67,1.06,-0.14,-1.22,0.0,1.0,3.0
3403,46.814598,t,485.0,511.0,272.0,80.0,189.0,155.0,287.0,396.0,9.73,-1.15,-0.38,66.0,18.94,-36.25,0.17,0.67,0.67,0.67,2.06,1.02,-0.82,0.0,1.0,3.0
3404,46.82969,t,481.0,511.0,275.0,80.0,191.0,156.0,292.0,395.0,9.74,-1.05,-0.29,65.31,17.87,-32.5,0.17,0.67,0.68,0.68,1.85,1.3,-0.51,0.0,1.0,3.0
3405,46.844748,t,469.0,490.0,275.0,83.0,197.0,158.0,294.0,389.0,9.75,-1.0,-0.25,62.06,20.81,-30.44,0.17,0.67,0.68,0.68,2.05,1.53,-0.33,0.0,1.0,3.0
3406,46.859809,t,454.0,434.0,271.0,79.0,202.0,157.0,282.0,367.0,9.76,-0.92,-0.16,51.69,19.75,-21.06,0.16,0.67,0.68,0.68,2.85,1.79,-0.02,0.0,1.0,3.0
3407,46.874813,t,450.0,394.0,260.0,77.0,203.0,158.0,274.0,363.0,9.76,-0.89,-0.12,43.81,21.06,-18.5,0.16,0.67,0.69,0.69,3.73,1.23,0.02,0.0,1.0,3.0
3408,46.889326,t,428.0,344.0,245.0,74.0,203.0,156.0,254.0,363.0,9.77,-0.84,-0.04,31.06,22.56,-15.25,0.16,0.67,0.69,0.69,4.39,0.29,0.49,0.0,1.0,3.0
3409,46.904501,t,405.0,315.0,225.0,75.0,204.0,137.0,238.0,330.0,9.77,-0.82,0.0,26.56,23.62,-12.19,0.16,0.67,0.69,0.69,4.58,-1.08,0.88,0.0,1.0,3.0
3410,46.919606,t,364.0,277.0,184.0,76.0,207.0,123.0,230.0,295.0,9.77,-0.82,0.09,22.06,25.69,3.5,0.16,0.67,0.69,0.69,4.5,-1.35,0.97,0.0,1.0,3.0
3411,46.934658,t,329.0,264.0,160.0,80.0,212.0,119.0,226.0,283.0,9.76,-0.84,0.13,-3.94,24.5,28.75,0.16,0.67,0.7,0.7,4.66,-4.57,1.52,0.0,1.0,3.0
3412,46.949715,t,301.0,249.0,144.0,81.0,214.0,122.0,222.0,264.0,9.76,-0.89,0.17,-23.69,30.56,42.31,0.15,0.66,0.7,0.7,4.51,-5.78,1.98,0.0,1.0,3.0
3413,46.964732,t,273.0,240.0,134.0,81.0,214.0,120.0,215.0,253.0,9.74,-1.06,0.28,-38.56,39.13,56.0,0.15,0.66,0.7,0.7,3.99,-6.94,-1.3,0.0,1.0,3.0
3414,46.979772,t,253.0,230.0,130.0,80.0,221.0,152.0,218.0,254.0,9.7,-1.32,0.4,-48.13,41.94,81.87,0.15,0.65,0.71,0.71,2.81,-8.73,-2.79,0.0,1.0,3.0
3415,46.994804,t,257.0,232.0,133.0,78.0,230.0,164.0,220.0,263.0,9.68,-1.49,0.46,-29.87,34.63,101.81,0.14,0.64,0.71,0.71,0.55,-8.58,-3.97,0.0,1.0,3.0
3416,47.009835,t,279.0,237.0,132.0,76.0,238.0,173.0,221.0,272.0,9.64,-1.68,0.5,4.19,27.19,114.75,0.13,0.64,0.71,0.71,0.98,-4.15,-3.97,0.0,1.0,3.0
3417,47.024867,t,296.0,242.0,135.0,75.0,246.0,177.0,226.0,278.0,9.56,-2.07,0.61,80.06,22.37,123.56,0.11,0.63,0.72,0.72,1.35,-2.85,-3.13,0.0,1.0,3.0
3418,47.039898,t,348.0,252.0,148.0,70.0,278.0,167.0,247.0,308.0,9.45,-2.45,0.8,106.62,34.5,123.81,0.1,0.63,0.73,0.73,0.92,-0.67,0.35,0.0,1.0,3.0
3419,47.054903,t,374.0,264.0,160.0,70.0,288.0,157.0,254.0,318.0,9.39,-2.65,0.88,98.19,24.69,130.25,0.08,0.62,0.73,0.73,2.34,0.27,0.68,0.0,1.0,3.0
3420,47.068936,t,393.0,272.0,163.0,68.0,300.0,154.0,257.0,329.0,9.32,-2.86,0.95,88.5,12.38,142.06,0.05,0.62,0.74,0.74,3.32,0.54,2.25,0.0,1.0,3.0
3421,47.085024,t,404.0,277.0,164.0,68.0,325.0,150.0,253.0,308.0,9.05,-3.59,1.11,67.06,5.19,168.75,0.03,0.61,0.75,0.75,-0.41,1.02,1.81,0.0,1.0,3.0
3422,47.099085,t,388.0,283.0,162.0,69.0,327.0,151.0,253.0,290.0,8.94,-3.84,1.14,52.19,-0.81,166.19,0.01,0.61,0.75,0.75,-0.79,1.51,1.67,0.0,1.0,3.0
3423,47.115144,t,381.0,280.0,163.0,70.0,353.0,162.0,263.0,295.0,8.84,-4.08,1.15,36.81,-8.19,159.75,0.0,-0.6,-0.75,-0.75,-0.74,1.75,1.39,0.0,1.0,3.0
3424,47.129227,t,378.0,286.0,158.0,68.0,351.0,160.0,261.0,292.0,8.73,-4.3,1.15,15.0,-6.62,151.06,0.02,-0.6,-0.75,-0.75,-0.59,2.61,0.81,0.0,1.0,3.0
3425,47.144298,t,376.0,275.0,133.0,70.0,367.0,211.0,278.0,313.0,8.4,-4.92,1.1,-56.06,5.25,131.0,0.03,-0.59,-0.75,-0.75,0.04,3.01,2.13,0.0,1.0,3.0
3426,47.159302,t,387.0,278.0,138.0,68.0,362.0,211.0,270.0,310.0,8.29,-5.13,1.03,-81.06,-1.12,133.81,0.04,-0.59,-0.74,-0.74,0.98,0.94,0.93,0.0,1.0,3.0
3427,47.174305,t,387.0,286.0,129.0,69.0,376.0,224.0,272.0,335.0,8.16,-5.34,0.94,-76.69,-11.13,142.56,0.04,-0.58,-0.74,-0.74,1.96,0.48,-0.6,0.0,1.0,3.0
3428,47.189309,t,381.0,298.0,129.0,69.0,381.0,232.0,270.0,349.0,8.02,-5.56,0.87,-57.31,-14.81,155.0,0.07,-0.57,-0.73,-0.73,-0.67,1.89,0.1,0.0,1.0,3.0
3429,47.204312,t,381.0,329.0,126.0,69.0,389.0,254.0,279.0,343.0,7.72,-5.99,0.76,-15.81,-9.13,149.12,0.08,-0.57,-0.73,-0.73,-0.99,2.82,1.14,0.0,1.0,3.0
3430,47.219316,t,378.0,332.0,121.0,68.0,391.0,259.0,283.0,339.0,7.41,-6.37,0.72,-5.5,-3.75,143.69,0.08,-0.56,-0.73,-0.73,-1.16,3.78,2.02,0.0,1.0,3.0
3431,47.234317,t,368.0,330.0,119.0,69.0,393.0,264.0,286.0,340.0,7.26,-6.55,0.72,-0.56,-1.0,137.69,0.09,-0.56,-0.73,-0.73,-1.91,4.59,1.84,0.0,1.0,3.0
3432,47.24932,t,362.0,336.0,125.0,68.0,408.0,276.0,293.0,338.0,6.97,-6.85,0.71,-3.25,-3.56,121.0,0.12,-0.55,-0.72,-0.72,-2.35,4.37,0.3,0.0,1.0,3.0
3433,47.264326,t,368.0,338.0,126.0,68.0,419.0,279.0,303.0,350.0,6.83,-6.99,0.69,-10.88,-9.13,111.94,0.12,-0.54,-0.72,-0.72,-1.68,4.18,-0.59,0.0,1.0,3.0
3434,47.2795,t,367.0,336.0,124.0,69.0,433.0,287.0,314.0,361.0,6.59,-7.22,0.59,-26.81,-17.81,96.06,0.13,-0.54,-0.72,-0.72,-1.63,3.87,0.0,0.0,1.0,3.0
3435,47.294564,t,377.0,326.0,131.0,69.0,438.0,288.0,319.0,362.0,6.48,-7.33,0.53,-30.62,-19.81,89.19,0.13,-0.54,-0.71,-0.71,-1.43,3.67,0.28,0.0,1.0,3.0
3436,47.309557,t,375.0,313.0,133.0,69.0,490.0,298.0,353.0,386.0,6.28,-7.51,0.36,-46.13,-25.69,77.81,0.14,-0.54,-0.71,-0.71,-1.29,3.78,0.13,0.0,1.0,3.0
3437,47.324645,t,370.0,309.0,125.0,69.0,475.0,284.0,345.0,381.0,6.19,-7.59,0.28,-46.63,-25.75,72.19,0.15,-0.54,-0.7,-0.7,-1.52,4.31,0.08,0.0,1.0,3.0
3438,47.33967,t,364.0,295.0,119.0,69.0,492.0,292.0,370.0,403.0,6.02,-7.73,0.11,-44.25,-24.31,62.38,0.15,-0.54,-0.7,-0.7,-1.98,4.77,0.0,0.0,1.0,3.0
3439,47.354673,t,370.0,280.0,120.0,69.0,508.0,284.0,367.0,406.0,5.88,-7.84,-0.06,-47.25,-25.87,50.63,0.15,-0.54,-0.69,-0.69,-1.82,4.15,-0.44,0.0,1.0,3.0
3440,47.369706,t,366.0,275.0,121.0,70.0,511.0,294.0,380.0,416.0,5.82,-7.89,-0.15,-44.56,-27.75,44.0,0.15,-0.54,-0.68,-0.68,-1.57,3.58,-0.57,0.0,1.0,3.0
3441,47.38471,t,372.0,266.0,120.0,68.0,511.0,284.0,380.0,429.0,5.76,-7.92,-0.23,-30.94,-31.19,34.75,0.16,-0.54,-0.68,-0.68,-0.97,2.07,-0.35,0.0,1.0,3.0
3442,47.399739,t,373.0,264.0,118.0,69.0,511.0,282.0,392.0,450.0,5.67,-7.99,-0.37,-26.44,-30.75,30.06,0.16,-0.54,-0.68,-0.68,-0.79,1.7,-0.52,0.0,1.0,3.0
3443,47.414742,t,376.0,260.0,120.0,68.0,511.0,280.0,420.0,474.0,5.6,-8.02,-0.48,-19.62,-27.75,19.25,0.16,-0.54,-0.67,-0.67,-0.45,1.79,-1.19,0.0,1.0,3.0
3444,47.429746,t,381.0,259.0,121.0,68.0,511.0,279.0,441.0,473.0,5.58,-8.04,-0.53,-14.81,-25.62,13.5,0.16,-0.55,-0.67,-0.67,-0.56,1.93,-1.12,0.0,1.0,3.0
3445,47.444776,t,386.0,259.0,124.0,69.0,511.0,274.0,440.0,495.0,5.57,-8.04,-0.57,-12.25,-24.12,7.56,0.16,-0.55,-0.66,-0.66,-0.26,1.63,-0.73,0.0,1.0,3.0
3446,47.459809,t,388.0,259.0,126.0,69.0,511.0,272.0,447.0,502.0,5.56,-8.04,-0.61,-10.31,-26.37,-2.25,0.16,-0.55,-0.66,-0.66,0.03,1.14,-0.54,0.0,1.0,3.0
3447,47.474812,t,394.0,269.0,125.0,68.0,511.0,277.0,453.0,501.0,5.58,-8.02,-0.72,-8.0,-24.44,-9.81,0.17,-0.55,-0.66,-0.66,0.21,0.99,-0.41,0.0,1.0,3.0
3448,47.489816,t,402.0,278.0,121.0,68.0,511.0,278.0,455.0,492.0,5.6,-8.01,-0.75,-6.0,-21.87,-13.75,0.17,-0.55,-0.66,-0.66,0.25,1.05,-0.13,0.0,1.0,3.0
3449,47.50482,t,410.0,284.0,118.0,69.0,511.0,277.0,442.0,479.0,5.62,-7.99,-0.78,-6.12,-18.56,-19.25,0.16,-0.56,-0.66,-0.66,0.12,1.13,0.22,0.0,1.0,3.0
3450,47.51985,t,416.0,288.0,115.0,70.0,511.0,282.0,416.0,466.0,5.66,-7.96,-0.8,-9.19,-6.87,-48.25,0.16,-0.56,-0.66,-0.66,-0.73,1.14,1.35,0.0,1.0,3.0
3451,47.534853,t,399.0,295.0,112.0,70.0,511.0,280.0,368.0,417.0,5.85,-7.81,-0.9,-22.94,-3.81,-62.0,0.15,-0.57,-0.66,-0.66,-0.22,0.93,1.0,0.0,1.0,3.0
3452,47.54986,t,404.0,312.0,106.0,69.0,511.0,291.0,369.0,401.0,5.96,-7.73,-0.94,-24.44,-0.5,-77.37,0.15,-0.57,-0.66,-0.66,0.3,0.79,0.08,0.0,1.0,3.0
3453,47.564889,t,424.0,330.0,106.0,69.0,511.0,295.0,348.0,385.0,6.08,-7.63,-0.94,-9.25,7.94,-92.31,0.14,-0.57,-0.66,-0.66,1.92,0.95,-3.37,0.0,1.0,3.0
3454,47.578893,t,410.0,354.0,105.0,69.0,511.0,305.0,336.0,380.0,6.22,-7.52,-0.88,26.44,24.06,-105.69,0.13,-0.58,-0.66,-0.66,2.89,0.59,-2.98,0.0,1.0,3.0
3455,47.594965,t,383.0,389.0,105.0,69.0,417.0,304.0,351.0,346.0,6.71,-7.1,-0.75,10.94,11.75,-135.44,0.11,-0.59,-0.67,-0.67,11.24,-3.02,2.61,0.0,1.0,3.0
3456,47.60997,t,376.0,386.0,110.0,68.0,406.0,276.0,346.0,338.0,6.87,-6.95,-0.72,26.87,0.56,-132.56,0.11,-0.59,-0.67,-0.67,10.68,-2.41,3.8,0.0,1.0,3.0
3457,47.625084,t,374.0,374.0,127.0,69.0,387.0,264.0,347.0,353.0,7.03,-6.79,-0.7,13.38,-1.81,-128.94,0.1,-0.6,-0.67,-0.67,9.15,-3.98,1.86,0.0,1.0,3.0
3458,47.639146,t,410.0,395.0,138.0,68.0,342.0,262.0,342.0,370.0,7.27,-6.53,-0.71,-1.56,-4.06,-81.62,0.08,-0.61,-0.68,-0.68,2.34,-0.5,1.59,0.0,1.0,3.0
3459,47.654229,t,409.0,424.0,142.0,68.0,327.0,262.0,341.0,373.0,7.45,-6.33,-0.7,1.56,5.81,-79.25,0.08,-0.61,-0.68,-0.68,1.96,0.41,2.1,0.0,1.0,3.0
3460,47.66926,t,406.0,424.0,144.0,70.0,325.0,263.0,345.0,373.0,7.54,-6.23,-0.68,9.31,11.94,-81.56,0.08,-0.61,-0.68,-0.68,1.97,0.57,2.64,0.0,1.0,3.0
3461,47.684665,t,401.0,462.0,146.0,70.0,323.0,266.0,348.0,377.0,7.63,-6.12,-0.63,28.31,13.88,-95.25,0.06,-0.62,-0.69,-0.69,1.35,0.67,1.45,0.0,1.0,3.0
3462,47.699712,t,402.0,466.0,142.0,68.0,305.0,254.0,334.0,354.0,7.84,-5.86,-0.48,49.75,22.62,-103.87,0.06,-0.62,-0.69,-0.69,0.17,1.95,0.41,0.0,1.0,3.0
3463,47.714742,t,409.0,478.0,144.0,69.0,306.0,252.0,326.0,357.0,7.95,-5.71,-0.4,47.63,25.94,-110.5,0.05,-0.62,-0.69,-0.69,0.11,1.93,0.3,0.0,1.0,3.0
3464,47.72977,t,410.0,479.0,140.0,69.0,308.0,250.0,319.0,359.0,8.18,-5.39,-0.26,31.37,19.94,-118.44,0.05,-0.62,-0.7,-0.7,0.54,1.54,0.37,0.0,1.0,3.0
3465,47.7448,t,416.0,478.0,133.0,68.0,296.0,239.0,313.0,353.0,8.39,-5.06,-0.21,15.94,3.44,-113.75,0.04,-0.63,-0.7,-0.7,2.35,0.69,0.95,0.0,1.0,3.0
3466,47.759828,t,416.0,476.0,137.0,69.0,292.0,236.0,308.0,357.0,8.48,-4.91,-0.2,10.19,-0.88,-109.87,0.03,-0.64,-0.7,-0.7,2.47,1.24,1.28,0.0,1.0,3.0
3467,47.774832,t,418.0,467.0,143.0,69.0,294.0,236.0,300.0,363.0,8.65,-4.6,-0.21,-4.5,-0.44,-101.12,0.02,-0.64,-0.7,-0.7,2.37,1.46,1.22,0.0,1.0,3.0
3468,47.789835,t,415.0,465.0,143.0,72.0,297.0,240.0,304.0,372.0,8.73,-4.45,-0.21,-13.13,6.75,-97.19,0.02,-0.64,-0.7,-0.7,1.27,2.29,0.57,0.0,1.0,3.0
3469,47.804839,t,421.0,465.0,148.0,74.0,288.0,230.0,290.0,364.0,8.8,-4.31,-0.2,-22.37,15.31,-94.81,0.02,-0.65,-0.7,-0.7,0.81,2.41,0.37,0.0,1.0,3.0
3470,47.819842,t,426.0,470.0,155.0,77.0,286.0,228.0,285.0,366.0,8.87,-4.16,-0.19,-44.75,29.31,-97.69,0.0,0.65,0.7,0.7,0.03,1.15,-0.61,0.0,1.0,3.0
3471,47.834845,t,427.0,469.0,167.0,82.0,290.0,236.0,288.0,376.0,9.08,-3.69,-0.15,-52.94,32.06,-103.37,0.02,0.65,0.7,0.7,-0.69,0.39,-0.93,0.0,1.0,3.0
3472,47.849882,t,438.0,473.0,168.0,80.0,285.0,229.0,278.0,373.0,9.14,-3.53,-0.13,-55.19,29.31,-105.87,0.04,0.66,0.7,0.7,-0.82,-0.21,-0.98,0.0,1.0,3.0
3473,47.864881,t,444.0,474.0,168.0,80.0,284.0,226.0,282.0,376.0,9.21,-3.36,-0.13,-53.63,22.19,-105.19,0.05,0.66,0.7,0.7,-1.08,-1.89,-1.34,0.0,1.0,3.0
3474,47.878939,t,436.0,470.0,174.0,80.0,279.0,224.0,278.0,376.0,9.32,-3.03,-0.11,-46.88,21.69,-100.69,0.06,0.66,0.7,0.7,-1.1,-2.87,-1.21,0.0,1.0,3.0
3475,47.895013,t,447.0,467.0,186.0,76.0,267.0,211.0,270.0,377.0,9.41,-2.74,-0.08,-23.5,18.5,-85.06,0.07,0.66,0.7,0.7,-1.39,-2.53,-1.13,0.0,1.0,3.0
3476,47.90908,t,442.0,462.0,188.0,78.0,254.0,191.0,263.0,373.0,9.44,-2.62,-0.06,-4.75,7.12,-65.44,0.08,0.66,0.7,0.7,-1.02,-1.26,-1.28,0.0,1.0,3.0
3477,47.924137,t,447.0,464.0,201.0,78.0,251.0,180.0,257.0,371.0,9.5,-2.41,-0.04,0.75,5.5,-59.44,0.08,0.66,0.7,0.7,-2.94,-1.28,-1.61,0.0,1.0,3.0
3478,47.939281,t,431.0,454.0,221.0,76.0,240.0,174.0,251.0,382.0,9.52,-2.31,-0.05,5.62,-8.0,-59.38,0.08,0.66,0.7,0.7,-2.39,-0.01,-0.93,0.0,1.0,3.0
3479,47.954399,t,430.0,458.0,222.0,75.0,223.0,155.0,231.0,371.0,9.55,-2.22,-0.09,4.87,-24.0,-59.5,0.08,0.67,0.7,0.7,-2.71,0.28,-0.69,0.0,1.0,3.0
3480,47.96952,t,426.0,456.0,231.0,75.0,216.0,147.0,218.0,367.0,9.57,-2.11,-0.13,7.19,-31.0,-64.62,0.09,0.68,0.69,0.69,-1.78,0.62,-0.69,0.0,1.0,3.0
3481,47.984637,t,406.0,449.0,244.0,77.0,209.0,132.0,222.0,369.0,9.63,-1.8,-0.26,4.31,-22.94,-60.25,0.09,0.68,0.69,0.69,-1.25,-0.32,-0.27,0.0,1.0,3.0
3482,47.999655,t,399.0,446.0,251.0,74.0,198.0,124.0,212.0,354.0,9.65,-1.71,-0.29,0.69,-17.25,-55.44,0.09,0.69,0.69,0.69,-1.56,-0.81,-0.17,0.0,1.0,3.0
3483,48.014689,t,406.0,447.0,253.0,76.0,187.0,126.0,211.0,355.0,9.66,-1.62,-0.31,-7.94,-9.44,-47.06,0.1,0.69,0.69,0.69,-2.09,-1.19,-0.14,0.0,1.0,3.0
3484,48.029758,t,419.0,445.0,254.0,76.0,168.0,124.0,220.0,358.0,9.68,-1.47,-0.35,-14.0,-9.06,-45.56,0.1,0.69,0.69,0.69,-1.45,-1.43,-0.14,0.0,1.0,3.0
3485,48.044831,t,453.0,439.0,274.0,76.0,158.0,127.0,259.0,379.0,9.7,-1.31,-0.39,-19.5,-8.94,-46.13,0.11,0.69,0.68,0.68,-1.24,-1.18,0.11,0.0,1.0,3.0
3486,48.058864,t,461.0,439.0,282.0,77.0,156.0,126.0,276.0,394.0,9.71,-1.23,-0.41,-15.56,-9.0,-45.94,0.11,0.69,0.68,0.68,-1.24,-1.4,0.09,0.0,1.0,3.0
3487,48.074924,t,475.0,444.0,291.0,77.0,152.0,127.0,290.0,406.0,9.73,-1.08,-0.44,-7.75,-5.69,-46.81,0.11,0.7,0.68,0.68,-1.0,-1.18,0.19,0.0,1.0,3.0
3488,48.088984,t,490.0,456.0,298.0,76.0,154.0,130.0,297.0,425.0,9.74,-1.0,-0.44,0.94,-2.31,-47.31,0.12,0.7,0.68,0.68,-0.63,-1.26,0.28,0.0,1.0,3.0
3489,48.10416,t,486.0,465.0,303.0,76.0,152.0,133.0,302.0,431.0,9.75,-0.92,-0.44,9.75,1.56,-44.25,0.12,0.7,0.68,0.68,0.56,-3.03,-0.67,0.0,1.0,3.0
3490,48.119341,t,482.0,503.0,322.0,75.0,151.0,136.0,311.0,434.0,9.77,-0.7,-0.4,38.0,4.25,-43.5,0.12,0.7,0.68,0.68,1.22,-3.21,-0.73,0.0,1.0,3.0
3491,48.134458,t,484.0,511.0,328.0,75.0,153.0,142.0,319.0,442.0,9.77,-0.63,-0.39,43.69,4.81,-42.69,0.12,0.7,0.68,0.68,2.01,-3.2,-0.82,0.0,1.0,3.0
3492,48.149588,t,495.0,511.0,329.0,74.0,154.0,144.0,327.0,444.0,9.78,-0.56,-0.37,44.69,9.19,-41.94,0.12,0.7,0.68,0.68,1.83,-2.98,-1.08,0.0,1.0,3.0
3493,48.164648,t,497.0,511.0,334.0,74.0,161.0,144.0,331.0,444.0,9.78,-0.49,-0.34,47.0,22.62,-51.31,0.12,0.7,0.69,0.69,1.5,-0.82,-1.13,0.0,1.0,3.0
3494,48.179676,t,498.0,511.0,337.0,74.0,175.0,155.0,337.0,447.0,9.8,-0.24,-0.2,40.31,28.44,-49.06,0.12,0.7,0.69,0.69,1.37,-0.18,-1.32,0.0,1.0,3.0
3495,48.194707,t,498.0,511.0,337.0,74.0,184.0,158.0,338.0,446.0,9.8,-0.16,-0.15,36.63,27.62,-46.19,0.12,0.7,0.69,0.69,2.22,-0.19,-1.17,0.0,1.0,3.0
3496,48.209738,t,495.0,511.0,338.0,75.0,190.0,159.0,334.0,446.0,9.8,-0.1,-0.1,28.31,30.69,-38.13,0.12,0.7,0.7,0.7,2.73,-0.52,-1.21,0.0,1.0,3.0
3497,48.224743,t,496.0,511.0,338.0,74.0,194.0,162.0,332.0,446.0,9.8,0.02,0.0,25.06,30.5,-33.88,0.12,0.7,0.7,0.7,2.55,-0.62,-1.08,0.0,1.0,3.0
3498,48.239747,t,503.0,511.0,338.0,74.0,195.0,162.0,335.0,450.0,9.8,0.06,0.07,8.06,21.25,-23.25,0.12,0.7,0.7,0.7,3.45,-0.85,-1.04,0.0,1.0,3.0
3499,48.254776,t,507.0,511.0,328.0,69.0,178.0,152.0,338.0,439.0,9.8,0.13,0.1,1.12,18.75,-18.37,0.12,0.69,0.7,0.7,3.54,-1.53,-1.11,0.0,1.0,3.0
3500,48.269806,t,494.0,491.0,324.0,70.0,174.0,150.0,336.0,426.0,9.8,0.15,0.13,4.0,16.56,-11.94,0.12,0.69,0.7,0.7,2.66,-2.14,-1.38,0.0,1.0,3.0
3501,48.284864,t,470.0,412.0,312.0,74.0,173.0,148.0,322.0,404.0,9.8,0.17,0.17,28.81,9.63,-3.37,0.12,0.69,0.7,0.7,2.67,-1.91,-0.97,0.0,1.0,3.0
3502,48.298897,t,463.0,374.0,297.0,80.0,175.0,144.0,302.0,402.0,9.8,0.18,0.18,32.88,8.0,-0.75,0.12,0.69,0.7,0.7,2.63,-1.67,-0.53,0.0,1.0,3.0
3503,48.314927,t,445.0,346.0,280.0,82.0,177.0,137.0,281.0,402.0,9.8,0.18,0.2,25.81,11.88,0.06,0.11,0.69,0.71,0.71,3.14,-1.7,0.19,0.0,1.0,3.0
3504,48.328985,t,411.0,291.0,227.0,84.0,188.0,127.0,258.0,385.0,9.8,0.09,0.34,-46.06,38.13,27.81,0.11,0.69,0.71,0.71,2.8,-2.13,0.22,0.0,1.0,3.0
3505,48.345058,t,368.0,290.0,186.0,83.0,189.0,122.0,240.0,335.0,9.79,0.02,0.41,-70.62,44.25,40.13,0.11,0.68,0.71,0.71,1.69,-3.47,0.58,0.0,1.0,3.0
3506,48.359118,t,326.0,291.0,159.0,84.0,199.0,125.0,236.0,314.0,9.79,-0.07,0.49,-80.87,46.0,53.31,0.11,0.68,0.72,0.72,2.24,-4.31,1.27,0.0,1.0,3.0
3507,48.374258,t,302.0,278.0,140.0,84.0,201.0,138.0,240.0,294.0,9.77,-0.39,0.68,-98.19,46.38,121.0,0.11,0.66,0.72,0.72,-0.93,-7.87,-0.66,0.0,1.0,3.0
3508,48.389406,t,294.0,219.0,143.0,79.0,209.0,144.0,237.0,283.0,9.74,-0.8,0.79,-89.69,33.5,109.81,0.11,0.66,0.73,0.73,0.47,-7.83,-4.34,0.0,1.0,3.0
3509,48.404574,t,317.0,225.0,149.0,78.0,218.0,162.0,244.0,291.0,9.71,-0.99,0.84,-50.0,32.44,111.69,0.11,0.66,0.73,0.73,-1.11,-6.23,-6.9,0.0,1.0,3.0
3510,48.419125,t,338.0,242.0,148.0,76.0,225.0,179.0,250.0,300.0,9.69,-1.16,0.9,9.81,35.63,101.75,0.09,0.65,0.74,0.74,-1.46,-4.77,-8.53,0.0,1.0,3.0
3511,48.434219,t,358.0,254.0,155.0,72.0,254.0,186.0,263.0,319.0,9.66,-1.33,0.96,112.69,19.5,120.19,0.08,0.65,0.74,0.74,-1.61,-1.56,0.47,0.0,1.0,3.0
3512,48.450364,t,426.0,297.0,187.0,72.0,286.0,176.0,274.0,352.0,9.55,-1.91,1.06,87.06,-17.44,136.56,0.05,0.64,0.74,0.74,2.28,0.69,2.13,0.0,1.0,3.0
3513,48.46445,t,440.0,308.0,187.0,71.0,303.0,169.0,269.0,350.0,9.51,-2.14,1.05,69.19,-19.44,143.94,0.04,0.64,0.74,0.74,2.82,0.76,1.57,0.0,1.0,3.0
3514,48.479533,t,440.0,324.0,187.0,70.0,314.0,173.0,262.0,351.0,9.45,-2.36,1.05,59.88,-12.25,145.81,0.01,0.64,0.74,0.74,1.53,1.47,1.91,0.0,1.0,3.0
3515,48.494631,t,414.0,323.0,178.0,68.0,312.0,183.0,250.0,326.0,9.39,-2.59,1.06,35.38,-21.06,130.37,0.01,-0.64,-0.74,-0.74,-1.9,1.44,1.64,0.0,1.0,3.0
3516,48.509665,t,378.0,319.0,174.0,70.0,282.0,198.0,250.0,293.0,9.21,-3.2,1.0,7.94,-27.69,120.75,0.02,-0.64,-0.74,-0.74,-1.69,2.45,2.26,0.0,1.0,3.0
3517,48.524668,t,358.0,310.0,161.0,68.0,251.0,214.0,258.0,282.0,9.15,-3.39,0.93,-23.5,-32.38,113.75,0.03,-0.64,-0.74,-0.74,-0.91,2.2,2.53,0.0,1.0,3.0
3518,48.539699,t,341.0,297.0,146.0,69.0,234.0,218.0,261.0,277.0,9.09,-3.57,0.84,-58.31,-37.06,110.94,0.03,-0.64,-0.73,-0.73,-0.23,2.19,2.16,0.0,1.0,3.0
3519,48.554762,t,319.0,284.0,140.0,69.0,246.0,234.0,265.0,280.0,8.95,-3.95,0.6,-38.56,-45.56,119.5,0.05,-0.64,-0.72,-0.72,1.61,-0.08,-2.71,0.0,1.0,3.0
3520,48.569795,t,337.0,284.0,134.0,69.0,249.0,239.0,252.0,285.0,8.79,-4.32,0.45,-20.56,-30.25,118.75,0.05,-0.64,-0.72,-0.72,1.27,0.45,-1.86,0.0,1.0,3.0
3521,48.584798,t,356.0,282.0,126.0,68.0,259.0,248.0,250.0,308.0,8.7,-4.49,0.41,-20.25,-16.06,117.31,0.06,-0.64,-0.72,-0.72,0.59,1.87,-0.06,0.0,1.0,3.0
3522,48.599828,t,391.0,318.0,114.0,68.0,271.0,263.0,241.0,328.0,8.53,-4.82,0.34,-25.25,-6.0,104.37,0.07,-0.63,-0.72,-0.72,-0.39,3.58,3.19,0.0,1.0,3.0
3523,48.614831,t,385.0,329.0,124.0,70.0,274.0,265.0,239.0,316.0,8.44,-4.96,0.33,-4.31,-6.81,98.25,0.08,-0.63,-0.71,-0.71,-0.67,3.88,2.9,0.0,1.0,3.0
3524,48.628863,t,362.0,349.0,144.0,68.0,281.0,266.0,244.0,298.0,8.29,-5.22,0.36,30.87,-3.56,85.19,0.09,-0.63,-0.71,-0.71,-0.66,3.62,2.61,0.0,1.0,3.0
3525,48.644866,t,345.0,368.0,143.0,68.0,289.0,268.0,251.0,297.0,8.22,-5.33,0.39,35.0,-0.31,79.25,0.1,-0.63,-0.71,-0.71,-1.33,2.63,1.69,0.0,1.0,3.0
3526,48.6599,t,338.0,375.0,154.0,69.0,291.0,273.0,256.0,287.0,8.15,-5.43,0.43,38.19,0.37,74.44,0.1,-0.62,-0.72,-0.72,-1.47,2.45,0.55,0.0,1.0,3.0
3527,48.674903,t,339.0,378.0,159.0,69.0,302.0,280.0,269.0,297.0,8.02,-5.61,0.49,20.87,2.12,56.75,0.12,-0.62,-0.72,-0.72,-2.88,4.07,-0.38,0.0,1.0,3.0
3528,48.688961,t,354.0,387.0,154.0,69.0,302.0,271.0,250.0,300.0,7.92,-5.75,0.53,11.75,-1.19,49.69,0.12,-0.62,-0.72,-0.72,-3.24,4.52,-0.46,0.0,1.0,3.0
3529,48.705066,t,374.0,394.0,154.0,69.0,318.0,263.0,246.0,310.0,7.88,-5.81,0.52,4.25,-6.19,42.25,0.13,-0.62,-0.71,-0.71,-3.36,4.94,-0.39,0.0,1.0,3.0
3530,48.719187,t,375.0,388.0,148.0,68.0,319.0,251.0,245.0,309.0,7.84,-5.89,0.48,-7.69,-14.19,25.44,0.13,-0.62,-0.71,-0.71,-2.99,6.04,0.14,0.0,1.0,3.0
3531,48.735221,t,378.0,372.0,139.0,68.0,313.0,234.0,237.0,312.0,7.8,-5.91,0.45,-12.94,-15.38,15.63,0.13,-0.62,-0.71,-0.71,-2.74,6.1,0.29,0.0,1.0,3.0
3532,48.750365,t,377.0,361.0,134.0,68.0,310.0,229.0,234.0,303.0,7.8,-5.92,0.41,-17.31,-15.5,4.62,0.13,-0.62,-0.71,-0.71,-2.29,5.24,0.4,0.0,1.0,3.0
3533,48.764461,t,370.0,345.0,134.0,68.0,304.0,221.0,233.0,293.0,7.83,-5.89,0.32,-26.62,-16.0,-19.0,0.13,-0.62,-0.71,-0.71,-2.27,4.64,0.55,0.0,1.0,3.0
3534,48.779578,t,365.0,341.0,125.0,68.0,288.0,215.0,236.0,241.0,7.9,-5.79,0.19,-38.13,-20.0,-41.81,0.12,-0.63,-0.7,-0.7,-2.19,3.59,0.57,0.0,1.0,3.0
3535,48.794621,t,347.0,344.0,122.0,68.0,279.0,214.0,238.0,221.0,7.95,-5.72,0.12,-42.25,-19.12,-51.81,0.11,-0.63,-0.7,-0.7,-2.15,2.3,0.53,0.0,1.0,3.0
3536,48.809694,t,352.0,354.0,116.0,68.0,270.0,214.0,242.0,202.0,8.01,-5.64,0.06,-43.06,-18.06,-60.13,0.11,-0.63,-0.7,-0.7,-2.33,1.6,0.44,0.0,1.0,3.0
3537,48.824727,t,357.0,361.0,110.0,69.0,282.0,218.0,281.0,150.0,8.22,-5.34,-0.13,-35.69,-26.19,-78.0,0.09,-0.64,-0.7,-0.7,-2.32,-1.62,0.21,0.0,1.0,3.0
3538,48.839787,t,352.0,364.0,101.0,69.0,285.0,222.0,298.0,139.0,8.29,-5.22,-0.2,-35.5,-29.25,-82.87,0.09,-0.65,-0.69,-0.69,-1.57,-3.22,-0.05,0.0,1.0,3.0
3539,48.854815,t,349.0,373.0,100.0,69.0,294.0,232.0,313.0,121.0,8.36,-5.1,-0.27,-29.44,-26.87,-81.37,0.08,-0.65,-0.69,-0.69,-1.14,-4.63,-0.31,0.0,1.0,3.0
3540,48.869874,t,368.0,366.0,101.0,68.0,294.0,238.0,314.0,116.0,8.43,-4.99,-0.32,-18.5,-27.19,-73.94,0.07,-0.65,-0.69,-0.69,0.13,-6.79,-0.69,0.0,1.0,3.0
3541,48.884907,t,386.0,372.0,98.0,69.0,310.0,256.0,340.0,112.0,8.54,-4.78,-0.44,21.87,-28.37,-33.13,0.07,-0.66,-0.69,-0.69,3.25,-8.84,-0.78,0.0,1.0,3.0
3542,48.898911,t,391.0,379.0,98.0,68.0,304.0,244.0,319.0,108.0,8.55,-4.76,-0.42,50.63,-15.13,-13.94,0.07,-0.66,-0.69,-0.69,4.34,-9.8,-0.2,0.0,1.0,3.0
3543,48.914914,t,388.0,369.0,99.0,69.0,306.0,253.0,329.0,112.0,8.55,-4.78,-0.36,71.12,0.81,6.12,0.08,-0.66,-0.69,-0.69,3.81,-8.86,-0.61,0.0,1.0,3.0
3544,48.928917,t,446.0,372.0,99.0,69.0,298.0,230.0,319.0,111.0,8.51,-4.86,-0.22,49.5,14.06,31.31,0.09,-0.66,-0.69,-0.69,0.92,-2.11,-1.03,0.0,1.0,3.0
3545,48.944921,t,455.0,368.0,106.0,69.0,286.0,223.0,312.0,112.0,8.48,-4.91,-0.19,20.87,7.56,33.5,0.09,-0.66,-0.69,-0.69,0.49,0.77,-0.16,0.0,1.0,3.0
3546,48.958951,t,491.0,360.0,102.0,68.0,284.0,209.0,306.0,114.0,8.45,-4.95,-0.21,-19.75,-20.06,21.37,0.09,-0.66,-0.69,-0.69,0.88,1.58,0.95,0.0,1.0,3.0
3547,48.974984,t,507.0,362.0,104.0,69.0,282.0,208.0,304.0,116.0,8.43,-4.99,-0.32,-23.19,-33.44,7.87,0.09,-0.66,-0.69,-0.69,3.67,3.87,2.6,0.0,1.0,3.0
3548,48.989095,t,511.0,382.0,100.0,69.0,275.0,208.0,310.0,127.0,8.46,-4.92,-0.53,-71.37,-35.13,-31.94,0.08,-0.67,-0.68,-0.68,4.09,3.0,2.61,0.0,1.0,3.0
3549,49.004213,t,511.0,412.0,113.0,69.0,289.0,218.0,323.0,134.0,8.49,-4.85,-0.63,-84.81,-16.12,-41.38,0.08,-0.67,-0.68,-0.68,3.94,0.56,2.97,0.0,1.0,3.0
3550,49.019634,t,511.0,426.0,118.0,69.0,314.0,246.0,350.0,150.0,8.53,-4.78,-0.69,-87.69,3.44,-42.0,0.06,-0.67,-0.68,-0.68,2.67,-7.06,2.26,0.0,1.0,3.0
3551,49.034676,t,511.0,511.0,134.0,76.0,334.0,267.0,394.0,232.0,8.59,-4.66,-0.75,-59.56,34.75,-5.0,0.05,-0.67,-0.68,-0.68,1.35,-3.43,-0.5,0.0,1.0,3.0
3552,49.049679,t,511.0,511.0,162.0,78.0,342.0,264.0,394.0,261.0,8.59,-4.66,-0.73,-22.69,25.0,0.75,0.05,-0.67,-0.68,-0.68,0.94,3.84,-2.36,0.0,1.0,3.0
3553,49.064712,t,511.0,511.0,211.0,78.0,356.0,266.0,399.0,299.0,8.6,-4.65,-0.69,23.31,12.44,-7.19,0.05,-0.67,-0.68,-0.68,0.22,5.64,-3.17,0.0,1.0,3.0
3554,49.079744,t,511.0,511.0,231.0,74.0,357.0,262.0,382.0,319.0,8.62,-4.62,-0.65,44.13,-17.31,-47.5,0.05,-0.67,-0.68,-0.68,-0.36,5.84,3.5,0.0,1.0,3.0
3555,49.094776,t,511.0,511.0,236.0,74.0,357.0,258.0,354.0,319.0,8.76,-4.34,-0.67,-1.87,-6.44,-77.5,0.04,-0.67,-0.68,-0.68,0.14,0.77,0.78,0.0,1.0,3.0
3556,49.109836,t,511.0,511.0,239.0,73.0,364.0,258.0,358.0,327.0,8.82,-4.22,-0.68,-1.87,-6.44,-77.5,0.04,-0.68,-0.68,-0.68,-0.2,-1.81,-1.1,0.0,1.0,3.0
3557,49.124829,t,511.0,511.0,257.0,73.0,366.0,261.0,360.0,343.0,8.87,-4.1,-0.68,14.19,-4.06,-78.62,0.03,-0.68,-0.68,-0.68,0.23,-3.22,-0.64,0.0,1.0,3.0
3558,49.139875,t,511.0,511.0,282.0,75.0,371.0,262.0,358.0,368.0,8.95,-3.94,-0.63,79.37,-19.25,-55.38,0.04,-0.68,-0.68,-0.68,0.35,0.59,1.69,0.0,1.0,3.0
3559,49.154906,t,511.0,511.0,291.0,74.0,369.0,261.0,347.0,378.0,8.99,-3.86,-0.61,82.37,-24.87,-53.38,0.04,-0.69,-0.68,-0.68,1.59,3.96,0.86,0.0,1.0,3.0
3560,49.168907,t,511.0,511.0,301.0,75.0,363.0,259.0,344.0,382.0,9.05,-3.71,-0.58,83.12,-27.87,-54.13,0.04,-0.69,-0.68,-0.68,1.59,3.67,0.52,0.0,1.0,3.0
3561,49.18494,t,511.0,511.0,304.0,77.0,358.0,259.0,347.0,386.0,9.08,-3.63,-0.57,80.5,-26.25,-55.38,0.05,-0.69,-0.68,-0.68,1.27,3.32,0.24,0.0,1.0,3.0
3562,49.198969,t,511.0,511.0,312.0,75.0,360.0,265.0,356.0,411.0,9.15,-3.47,-0.55,61.88,-14.69,-56.69,0.05,-0.7,-0.69,-0.69,0.98,3.74,0.54,0.0,1.0,3.0
3563,49.214101,t,511.0,511.0,314.0,74.0,352.0,254.0,342.0,394.0,9.18,-3.38,-0.53,46.0,-7.81,-58.75,0.05,-0.7,-0.69,-0.69,0.4,3.7,0.11,0.0,1.0,3.0
3564,49.229118,t,511.0,511.0,316.0,74.0,347.0,258.0,340.0,395.0,9.26,-3.18,-0.51,16.56,0.13,-65.94,0.04,-0.7,-0.69,-0.69,1.62,3.45,-0.71,0.0,1.0,3.0
3565,49.244231,t,511.0,511.0,319.0,74.0,329.0,257.0,329.0,390.0,9.33,-2.97,-0.5,-9.44,8.5,-66.87,0.03,-0.7,-0.69,-0.69,1.39,2.35,-0.67,0.0,1.0,3.0
3566,49.259325,t,511.0,511.0,324.0,75.0,319.0,253.0,326.0,385.0,9.36,-2.86,-0.48,-20.56,18.0,-64.31,0.03,-0.7,-0.69,-0.69,0.21,1.76,-0.83,0.0,1.0,3.0
3567,49.274497,t,499.0,508.0,316.0,72.0,314.0,245.0,319.0,376.0,9.39,-2.76,-0.46,-26.56,16.06,-62.94,0.02,-0.7,-0.69,-0.69,-0.73,0.49,-0.86,0.0,1.0,3.0
3568,49.289559,t,492.0,480.0,311.0,72.0,306.0,242.0,319.0,362.0,9.45,-2.55,-0.49,-27.81,-8.0,-63.0,0.01,-0.7,-0.69,-0.69,0.42,0.43,-0.91,0.0,1.0,3.0
3569,49.304612,t,478.0,446.0,305.0,72.0,292.0,232.0,316.0,349.0,9.5,-2.34,-0.56,-23.87,-14.19,-63.06,0.0,-0.71,-0.69,-0.69,0.02,0.17,-0.31,0.0,1.0,3.0
3570,49.319635,t,462.0,424.0,310.0,73.0,274.0,221.0,310.0,340.0,9.53,-2.23,-0.59,-18.94,-11.06,-63.75,0.0,0.71,0.69,0.69,-0.34,0.03,-0.22,0.0,1.0,3.0
3571,49.33464,t,461.0,402.0,307.0,74.0,253.0,214.0,307.0,331.0,9.55,-2.12,-0.61,-11.06,-12.25,-64.19,0.01,0.71,0.68,0.68,-0.12,0.1,-0.05,0.0,1.0,3.0
3572,49.350642,t,455.0,398.0,306.0,74.0,238.0,202.0,302.0,333.0,9.57,-1.91,-0.66,10.56,-12.19,-65.31,0.02,0.71,0.68,0.68,0.2,-0.18,-0.44,0.0,1.0,3.0
3573,49.364655,t,451.0,410.0,316.0,74.0,226.0,185.0,306.0,347.0,9.63,-1.7,-0.68,17.12,-10.38,-64.06,0.02,0.72,0.68,0.68,0.0,-0.39,-0.18,0.0,1.0,3.0
3574,49.379714,t,465.0,415.0,322.0,75.0,206.0,172.0,304.0,358.0,9.64,-1.6,-0.7,24.94,-11.25,-59.38,0.02,0.72,0.68,0.68,0.03,0.99,0.49,0.0,1.0,3.0
3575,49.394718,t,454.0,418.0,324.0,76.0,202.0,176.0,314.0,372.0,9.66,-1.43,-0.72,24.31,-10.56,-55.25,0.02,0.72,0.68,0.68,0.41,0.37,0.36,0.0,1.0,3.0
3576,49.409763,t,468.0,437.0,329.0,75.0,197.0,171.0,314.0,380.0,9.68,-1.34,-0.73,23.0,-7.69,-53.44,0.03,0.72,0.68,0.68,-0.46,0.08,0.43,0.0,1.0,3.0
3577,49.424766,t,466.0,454.0,337.0,75.0,196.0,173.0,326.0,392.0,9.7,-1.17,-0.72,17.44,1.62,-51.13,0.03,0.72,0.68,0.68,-0.84,-0.18,0.35,0.0,1.0,3.0
3578,49.439807,t,470.0,470.0,338.0,73.0,199.0,180.0,347.0,410.0,9.71,-1.09,-0.71,9.94,4.5,-49.94,0.03,0.72,0.68,0.68,-0.74,-0.15,0.16,0.0,1.0,3.0
3579,49.454861,t,483.0,478.0,343.0,74.0,195.0,177.0,338.0,404.0,9.72,-1.01,-0.7,2.0,9.19,-47.25,0.04,0.72,0.68,0.68,-1.05,-1.38,-0.47,0.0,1.0,3.0
3580,49.469893,t,490.0,511.0,354.0,77.0,201.0,190.0,338.0,408.0,9.74,-0.85,-0.67,-10.13,10.63,-45.31,0.04,0.72,0.68,0.68,-1.21,-2.33,-0.65,0.0,1.0,3.0
3581,49.484923,t,494.0,511.0,354.0,76.0,204.0,191.0,337.0,416.0,9.75,-0.78,-0.65,-15.13,11.56,-38.94,0.05,0.72,0.68,0.68,-0.91,-2.75,-0.54,0.0,1.0,3.0
3582,49.499009,t,508.0,511.0,358.0,75.0,206.0,191.0,340.0,418.0,9.76,-0.65,-0.62,-15.5,10.13,-35.75,0.05,0.72,0.68,0.68,-0.61,-2.7,-0.56,0.0,1.0,3.0
3583,49.515066,t,506.0,511.0,358.0,74.0,208.0,191.0,342.0,432.0,9.76,-0.59,-0.61,-14.75,7.81,-32.81,0.06,0.72,0.68,0.68,0.16,-2.37,-0.34,0.0,1.0,3.0
3584,49.529171,t,503.0,511.0,367.0,73.0,212.0,197.0,348.0,429.0,9.77,-0.49,-0.59,-13.0,4.75,-29.87,0.06,0.72,0.68,0.68,0.8,-2.13,-0.65,0.0,1.0,3.0
3585,49.545272,t,502.0,511.0,371.0,74.0,215.0,198.0,350.0,435.0,9.77,-0.44,-0.58,-10.75,4.62,-29.87,0.06,0.72,0.68,0.68,0.82,-2.07,-0.74,0.0,1.0,3.0
3586,49.559369,t,505.0,511.0,372.0,74.0,218.0,195.0,351.0,434.0,9.78,-0.39,-0.57,0.37,11.13,-30.62,0.07,0.72,0.68,0.68,0.99,-2.22,-1.26,0.0,1.0,3.0
3587,49.574463,t,506.0,511.0,387.0,77.0,229.0,202.0,366.0,464.0,9.79,-0.23,-0.51,14.0,13.19,-31.19,0.07,0.72,0.68,0.68,2.53,-2.0,-1.05,0.0,1.0,3.0
3588,49.589533,t,511.0,511.0,392.0,78.0,229.0,195.0,356.0,436.0,9.79,-0.18,-0.48,16.94,14.63,-32.06,0.07,0.72,0.69,0.69,2.54,-1.98,-0.96,0.0,1.0,3.0
3589,49.604547,t,511.0,511.0,397.0,81.0,231.0,195.0,362.0,440.0,9.79,-0.13,-0.46,17.31,15.31,-29.81,0.07,0.72,0.69,0.69,2.55,-1.96,-0.81,0.0,1.0,3.0
3590,49.61954,t,511.0,511.0,400.0,83.0,235.0,191.0,361.0,442.0,9.79,-0.05,-0.4,18.19,10.13,-8.81,0.07,0.72,0.69,0.69,2.3,-2.68,0.23,0.0,1.0,3.0
3591,49.634544,t,511.0,511.0,401.0,86.0,234.0,191.0,352.0,439.0,9.79,-0.05,-0.4,18.19,10.13,-8.81,0.07,0.72,0.69,0.69,2.76,-3.3,-0.22,0.0,1.0,3.0
3592,49.649547,t,511.0,486.0,399.0,88.0,232.0,185.0,346.0,450.0,9.79,-0.06,-0.38,13.94,4.75,7.62,0.07,0.72,0.69,0.69,2.82,-3.38,-0.47,0.0,1.0,3.0
3593,49.664561,t,506.0,454.0,380.0,87.0,222.0,166.0,316.0,419.0,9.79,-0.1,-0.37,9.88,2.56,18.12,0.07,0.72,0.69,0.69,3.58,-3.18,-0.5,0.0,1.0,3.0
3594,49.679553,t,440.0,365.0,290.0,84.0,220.0,154.0,274.0,386.0,9.79,-0.28,-0.36,-42.38,12.88,47.31,0.06,0.71,0.69,0.69,3.77,-4.01,-0.66,0.0,1.0,3.0
3595,49.694568,t,446.0,337.0,254.0,83.0,222.0,147.0,257.0,366.0,9.79,-0.38,-0.31,-60.75,27.06,62.13,0.06,0.71,0.69,0.69,3.57,-4.57,-0.72,0.0,1.0,3.0
3596,49.709571,t,415.0,323.0,222.0,83.0,226.0,158.0,256.0,355.0,9.78,-0.52,-0.25,-72.69,40.38,81.56,0.06,0.71,0.69,0.69,2.76,-5.29,-0.38,0.0,1.0,3.0
3597,49.724575,t,391.0,300.0,198.0,83.0,248.0,176.0,263.0,362.0,9.78,-0.68,-0.19,-69.56,41.19,99.19,0.06,0.71,0.7,0.7,2.65,-5.79,-0.81,0.0,1.0,3.0
3598,49.739567,t,417.0,293.0,191.0,80.0,280.0,202.0,275.0,371.0,9.74,-1.07,-0.03,-12.19,54.81,119.19,0.04,0.69,0.71,0.71,2.07,-4.02,-3.14,0.0,1.0,3.0
3599,49.754571,t,424.0,294.0,207.0,74.0,284.0,195.0,278.0,357.0,9.72,-1.26,0.07,75.19,47.81,121.62,0.03,0.69,0.71,0.71,2.81,-0.37,-2.85,0.0,1.0,3.0
3600,49.769574,t,447.0,297.0,205.0,72.0,300.0,186.0,289.0,354.0,9.65,-1.67,0.27,94.87,47.56,127.12,0.02,0.68,0.72,0.72,2.69,1.17,-1.12,0.0,1.0,3.0
3601,49.784588,t,500.0,319.0,181.0,71.0,319.0,163.0,277.0,345.0,9.56,-2.12,0.4,44.44,22.25,141.12,0.0,-0.68,-0.72,-0.72,3.67,-0.23,2.2,0.0,1.0,3.0
3602,49.799581,t,503.0,319.0,175.0,72.0,329.0,170.0,274.0,342.0,9.5,-2.36,0.42,16.75,10.19,148.0,0.01,-0.67,-0.72,-0.72,4.36,-0.59,1.32,0.0,1.0,3.0
3603,49.814595,t,497.0,312.0,166.0,72.0,341.0,176.0,274.0,343.0,9.43,-2.62,0.43,7.06,4.94,158.37,0.03,-0.67,-0.72,-0.72,5.24,0.62,1.07,0.0,1.0,3.0
3604,49.829588,t,486.0,309.0,163.0,72.0,354.0,181.0,278.0,349.0,9.26,-3.18,0.48,16.81,11.13,185.81,0.06,-0.66,-0.72,-0.72,3.69,2.22,1.95,0.0,1.0,3.0
3605,49.84459,t,447.0,306.0,160.0,71.0,376.0,191.0,286.0,357.0,9.03,-3.77,0.53,0.88,16.25,188.12,0.07,-0.66,-0.72,-0.72,2.52,2.1,1.68,0.0,1.0,3.0
3606,49.859598,t,436.0,302.0,158.0,72.0,399.0,201.0,300.0,372.0,8.9,-4.06,0.55,-13.13,18.87,188.37,0.08,-0.65,-0.72,-0.72,1.76,2.0,1.56,0.0,1.0,3.0
3607,49.874651,t,428.0,302.0,152.0,72.0,402.0,212.0,298.0,391.0,8.76,-4.35,0.56,-41.19,16.31,185.69,0.1,-0.64,-0.72,-0.72,1.0,0.92,0.93,0.0,1.0,3.0
3608,49.889744,t,430.0,311.0,148.0,68.0,418.0,222.0,289.0,382.0,8.31,-5.17,0.5,-44.38,5.0,181.56,0.12,-0.64,-0.72,-0.72,1.22,0.37,0.71,0.0,1.0,3.0
3609,49.904774,t,421.0,315.0,150.0,70.0,424.0,233.0,298.0,389.0,8.15,-5.43,0.46,-39.25,0.44,177.81,0.13,-0.63,-0.71,-0.71,0.67,0.78,0.33,0.0,1.0,3.0
3610,49.919833,t,427.0,327.0,154.0,69.0,434.0,242.0,308.0,409.0,7.98,-5.67,0.42,-32.31,-3.44,170.25,0.14,-0.62,-0.71,-0.71,0.05,1.38,0.32,0.0,1.0,3.0
3611,49.934965,t,417.0,326.0,152.0,69.0,430.0,249.0,311.0,403.0,7.82,-5.89,0.38,-26.94,-9.0,164.87,0.15,-0.62,-0.7,-0.7,-0.33,3.78,1.49,0.0,1.0,3.0
3612,49.949077,t,418.0,326.0,149.0,68.0,424.0,257.0,306.0,388.0,7.31,-6.52,0.24,-29.87,-14.25,154.75,0.17,-0.62,-0.7,-0.7,-0.28,4.06,1.12,0.0,1.0,3.0
3613,49.96414,t,417.0,325.0,148.0,69.0,434.0,262.0,310.0,389.0,7.14,-6.71,0.18,-34.75,-15.38,149.25,0.18,-0.61,-0.69,-0.69,-0.98,4.01,0.91,0.0,1.0,3.0
3614,49.9792,t,411.0,319.0,148.0,69.0,440.0,264.0,312.0,398.0,6.98,-6.88,0.12,-39.38,-19.0,142.94,0.18,-0.61,-0.69,-0.69,-1.52,3.36,0.34,0.0,1.0,3.0
3615,49.994387,t,420.0,297.0,131.0,68.0,439.0,265.0,326.0,390.0,6.66,-7.19,-0.02,-32.63,-28.06,127.37,0.2,-0.61,-0.68,-0.68,-2.11,3.97,0.2,0.0,1.0,3.0
3616,50.009478,t,426.0,297.0,131.0,69.0,441.0,268.0,333.0,394.0,6.51,-7.32,-0.09,-24.0,-31.12,111.56,0.21,-0.6,-0.67,-0.67,-2.87,5.0,0.77,0.0,1.0,3.0
3617,50.024559,t,429.0,294.0,133.0,68.0,442.0,272.0,335.0,409.0,6.23,-7.56,-0.21,-20.12,-30.06,103.44,0.22,-0.6,-0.67,-0.67,-2.48,5.12,0.64,0.0,1.0,3.0
3618,50.039627,t,420.0,282.0,132.0,69.0,450.0,284.0,350.0,441.0,6.11,-7.66,-0.3,-13.31,-23.37,87.25,0.23,-0.6,-0.66,-0.66,-1.88,5.6,0.4,0.0,1.0,3.0
3619,50.054677,t,416.0,262.0,124.0,69.0,447.0,285.0,343.0,427.0,5.88,-7.83,-0.34,-11.75,-20.25,80.31,0.24,-0.6,-0.65,-0.65,-1.79,5.56,0.59,0.0,1.0,3.0
3620,50.069766,t,405.0,250.0,123.0,69.0,457.0,290.0,346.0,424.0,5.78,-7.9,-0.38,-11.19,-24.56,67.5,0.24,-0.6,-0.65,-0.65,-1.91,4.86,0.53,0.0,1.0,3.0
3621,50.084798,t,403.0,244.0,124.0,68.0,471.0,298.0,350.0,426.0,5.6,-8.03,-0.46,-11.44,-26.37,61.5,0.25,-0.6,-0.64,-0.64,-2.3,4.21,0.03,0.0,1.0,3.0
3622,50.099828,t,402.0,239.0,123.0,68.0,478.0,298.0,347.0,443.0,5.52,-8.08,-0.5,-12.0,-26.37,55.13,0.25,-0.6,-0.64,-0.64,-2.47,3.99,-0.02,0.0,1.0,3.0
3623,50.114856,t,393.0,208.0,125.0,70.0,511.0,306.0,368.0,464.0,5.39,-8.16,-0.59,-13.38,-29.44,41.94,0.26,-0.6,-0.63,-0.63,-2.53,3.6,0.49,0.0,1.0,3.0
3624,50.129889,t,390.0,197.0,127.0,70.0,511.0,302.0,374.0,469.0,5.34,-8.19,-0.64,-16.0,-29.06,34.63,0.26,-0.6,-0.63,-0.63,-1.99,2.52,-0.01,0.0,1.0,3.0
3625,50.144947,t,389.0,186.0,125.0,69.0,511.0,301.0,384.0,511.0,5.3,-8.22,-0.68,-10.69,-22.87,20.06,0.26,-0.6,-0.63,-0.63,-1.7,2.26,0.11,0.0,1.0,3.0
3626,50.15995,t,393.0,188.0,124.0,68.0,511.0,286.0,367.0,492.0,5.24,-8.25,-0.74,-3.0,-20.44,9.38,0.26,-0.6,-0.63,-0.63,-0.95,1.36,0.17,0.0,1.0,3.0
3627,50.175013,t,402.0,201.0,123.0,68.0,511.0,282.0,358.0,491.0,5.22,-8.26,-0.75,13.56,-19.37,4.37,0.27,-0.6,-0.63,-0.63,-0.65,1.65,0.15,0.0,1.0,3.0
3628,50.189073,t,406.0,210.0,123.0,69.0,511.0,279.0,352.0,482.0,5.22,-8.26,-0.74,19.37,-18.06,-1.56,0.27,-0.6,-0.62,-0.62,-0.28,2.09,0.32,0.0,1.0,3.0
3629,50.205137,t,403.0,216.0,122.0,69.0,511.0,283.0,348.0,486.0,5.23,-8.26,-0.73,19.81,-16.12,-9.94,0.27,-0.61,-0.63,-0.63,0.48,2.43,0.38,0.0,1.0,3.0
3630,50.219228,t,403.0,230.0,119.0,69.0,505.0,258.0,303.0,419.0,5.38,-8.16,-0.7,13.75,-10.5,-51.88,0.27,-0.61,-0.63,-0.63,0.91,2.18,0.99,0.0,1.0,3.0
3631,50.234288,t,403.0,242.0,111.0,69.0,511.0,262.0,297.0,406.0,5.48,-8.1,-0.69,8.56,-5.06,-70.81,0.26,-0.61,-0.63,-0.63,1.7,2.23,-0.69,0.0,1.0,3.0
3632,50.250428,t,415.0,251.0,100.0,68.0,496.0,262.0,277.0,392.0,5.6,-8.02,-0.67,13.38,-1.75,-85.94,0.26,-0.61,-0.63,-0.63,2.82,0.89,-1.51,0.0,1.0,3.0
3633,50.264475,t,426.0,278.0,99.0,70.0,464.0,276.0,272.0,415.0,5.73,-7.92,-0.66,10.81,-1.0,-94.94,0.25,-0.62,-0.64,-0.64,10.82,-4.4,0.23,0.0,1.0,3.0
3634,50.279625,t,416.0,302.0,103.0,68.0,370.0,265.0,280.0,367.0,6.23,-7.53,-0.7,-34.63,39.44,-128.31,0.23,-0.63,-0.64,-0.64,9.82,-1.64,2.35,0.0,1.0,3.0
3635,50.294674,t,404.0,302.0,103.0,69.0,364.0,250.0,290.0,358.0,6.39,-7.39,-0.71,-24.5,23.06,-127.0,0.22,-0.63,-0.65,-0.65,9.09,-0.5,4.32,0.0,1.0,3.0
3636,50.309812,t,391.0,302.0,104.0,69.0,357.0,252.0,306.0,365.0,6.55,-7.25,-0.75,-42.13,9.44,-123.56,0.21,-0.63,-0.65,-0.65,9.14,-2.86,2.15,0.0,1.0,3.0
3637,50.324845,t,395.0,317.0,120.0,69.0,340.0,255.0,290.0,371.0,6.7,-7.11,-0.79,-38.0,11.25,-118.81,0.19,-0.64,-0.65,-0.65,4.22,-3.48,0.93,0.0,1.0,3.0
3638,50.338907,t,377.0,337.0,126.0,69.0,325.0,253.0,288.0,363.0,7.08,-6.74,-0.77,0.31,26.06,-97.06,0.18,-0.65,-0.66,-0.66,4.05,-0.86,1.79,0.0,1.0,3.0
3639,50.354911,t,367.0,345.0,130.0,69.0,317.0,254.0,296.0,354.0,7.19,-6.62,-0.7,22.19,32.19,-94.0,0.17,-0.65,-0.66,-0.66,4.04,-0.62,1.4,0.0,1.0,3.0
3640,50.369046,t,368.0,377.0,132.0,68.0,307.0,242.0,299.0,330.0,7.3,-6.51,-0.6,49.81,36.31,-96.81,0.17,-0.65,-0.66,-0.66,3.81,-0.01,0.94,0.0,1.0,3.0
3641,50.384158,t,355.0,407.0,141.0,69.0,308.0,242.0,308.0,319.0,7.55,-6.24,-0.36,66.69,33.69,-112.56,0.16,-0.65,-0.68,-0.68,2.3,2.84,-0.65,0.0,1.0,3.0
3642,50.39934,t,367.0,426.0,140.0,68.0,298.0,235.0,303.0,324.0,7.67,-6.09,-0.27,47.69,17.06,-113.62,0.15,-0.65,-0.68,-0.68,1.95,2.54,-0.5,0.0,1.0,3.0
3643,50.414528,t,375.0,440.0,140.0,69.0,298.0,240.0,306.0,326.0,7.9,-5.8,-0.14,35.75,10.25,-110.75,0.15,-0.65,-0.69,-0.69,1.82,2.1,-0.25,0.0,1.0,3.0
3644,50.429577,t,378.0,449.0,136.0,69.0,295.0,233.0,299.0,326.0,8.11,-5.51,-0.09,14.25,5.25,-103.69,0.14,-0.65,-0.69,-0.69,1.36,2.15,-0.01,0.0,1.0,3.0
3645,50.444668,t,381.0,450.0,138.0,68.0,296.0,231.0,294.0,329.0,8.2,-5.36,-0.08,5.94,2.62,-101.56,0.13,-0.66,-0.69,-0.69,1.27,2.2,0.0,0.0,1.0,3.0
3646,50.459844,t,387.0,444.0,136.0,68.0,300.0,228.0,281.0,340.0,8.29,-5.22,-0.08,-2.69,0.0,-100.44,0.12,-0.66,-0.69,-0.69,0.88,2.56,0.24,0.0,1.0,3.0
3647,50.474902,t,392.0,450.0,138.0,73.0,300.0,224.0,276.0,348.0,8.46,-4.94,-0.12,-26.56,-0.75,-96.44,0.11,-0.66,-0.69,-0.69,0.77,2.4,0.24,0.0,1.0,3.0
3648,50.489905,t,398.0,452.0,152.0,78.0,291.0,223.0,271.0,351.0,8.62,-4.65,-0.17,-42.56,7.37,-97.75,0.09,-0.67,-0.69,-0.69,0.8,2.19,0.1,0.0,1.0,3.0
3649,50.504965,t,406.0,452.0,155.0,78.0,283.0,216.0,267.0,353.0,8.7,-4.5,-0.19,-46.56,11.75,-100.56,0.09,-0.67,-0.69,-0.69,0.78,2.05,0.16,0.0,1.0,3.0
3650,50.519046,t,408.0,453.0,158.0,78.0,279.0,217.0,264.0,352.0,8.78,-4.34,-0.2,-50.5,16.44,-103.75,0.07,-0.67,-0.7,-0.7,0.8,1.64,-0.04,0.0,1.0,3.0
3651,50.53516,t,405.0,460.0,168.0,79.0,278.0,224.0,262.0,357.0,9.01,-3.84,-0.19,-56.38,33.19,-108.19,0.05,-0.67,-0.7,-0.7,0.4,-0.06,-0.62,0.0,1.0,3.0
3652,50.549292,t,416.0,471.0,177.0,81.0,280.0,224.0,265.0,358.0,9.08,-3.67,-0.17,-55.25,34.63,-105.31,0.04,-0.67,-0.7,-0.7,-0.03,-0.75,-0.71,0.0,1.0,3.0
3653,50.564383,t,409.0,468.0,180.0,79.0,281.0,222.0,267.0,357.0,9.15,-3.51,-0.15,-50.69,33.88,-100.5,0.03,-0.67,-0.7,-0.7,-0.69,-1.41,-0.77,0.0,1.0,3.0
3654,50.579566,t,413.0,468.0,183.0,78.0,279.0,219.0,269.0,357.0,9.2,-3.36,-0.13,-43.0,28.25,-95.87,0.01,-0.67,-0.7,-0.7,-1.75,-2.26,-1.28,0.0,1.0,3.0
3655,50.594647,t,415.0,472.0,202.0,80.0,270.0,204.0,272.0,359.0,9.3,-3.09,-0.09,-25.62,22.75,-81.81,0.0,0.68,0.7,0.7,-1.47,-1.35,-1.43,0.0,1.0,3.0
3656,50.609735,t,419.0,488.0,207.0,80.0,266.0,198.0,270.0,364.0,9.37,-2.86,-0.07,-15.63,5.19,-67.44,0.01,0.68,0.7,0.7,0.07,-0.56,-1.12,0.0,1.0,3.0
3657,50.624736,t,422.0,490.0,222.0,80.0,262.0,187.0,268.0,365.0,9.4,-2.76,-0.06,-12.88,11.94,-62.88,0.01,0.68,0.7,0.7,-2.12,-0.43,-1.63,0.0,1.0,3.0
3658,50.63974,t,429.0,475.0,235.0,78.0,241.0,166.0,250.0,366.0,9.46,-2.56,-0.06,-12.63,-1.44,-61.88,0.02,0.68,0.7,0.7,-3.87,0.01,-1.22,0.0,1.0,3.0
3659,50.654743,t,431.0,461.0,242.0,76.0,228.0,156.0,245.0,366.0,9.49,-2.45,-0.09,-9.13,-14.13,-63.69,0.03,0.68,0.7,0.7,-3.6,0.08,-0.75,0.0,1.0,3.0
3660,50.669748,t,432.0,469.0,258.0,77.0,221.0,150.0,240.0,371.0,9.54,-2.23,-0.17,-3.56,-24.56,-70.44,0.04,0.69,0.7,0.7,-1.95,0.04,-0.71,0.0,1.0,3.0
3661,50.684781,t,419.0,465.0,273.0,75.0,214.0,155.0,249.0,377.0,9.57,-2.11,-0.2,-2.5,-17.81,-69.62,0.04,0.69,0.7,0.7,-1.42,-0.61,-0.55,0.0,1.0,3.0
3662,50.699784,t,430.0,464.0,279.0,76.0,206.0,144.0,246.0,359.0,9.59,-2.0,-0.22,-0.69,-11.75,-66.81,0.04,0.69,0.7,0.7,-1.43,-0.98,-0.29,0.0,1.0,3.0
3663,50.714818,t,425.0,454.0,287.0,78.0,204.0,142.0,260.0,358.0,9.61,-1.9,-0.23,-1.37,-7.37,-63.25,0.05,0.69,0.7,0.7,-1.72,-0.98,-0.45,0.0,1.0,3.0
3664,50.729822,t,432.0,447.0,314.0,77.0,191.0,150.0,291.0,373.0,9.66,-1.61,-0.28,-10.06,-9.06,-57.63,0.06,0.7,0.69,0.69,-1.69,-0.75,-0.68,0.0,1.0,3.0
3665,50.744876,t,443.0,440.0,317.0,78.0,187.0,150.0,305.0,390.0,9.68,-1.51,-0.3,-12.44,-11.63,-59.56,0.06,0.7,0.69,0.69,-1.32,-0.74,-0.68,0.0,1.0,3.0
3666,50.759909,t,459.0,451.0,328.0,76.0,185.0,146.0,312.0,386.0,9.69,-1.4,-0.33,-9.75,-8.31,-63.31,0.07,0.7,0.69,0.69,-0.72,-1.95,-0.66,0.0,1.0,3.0
3667,50.773982,t,472.0,454.0,338.0,74.0,185.0,154.0,328.0,413.0,9.72,-1.19,-0.36,0.88,-10.19,-63.19,0.07,0.7,0.69,0.69,-0.73,-2.23,-0.2,0.0,1.0,3.0
3668,50.789038,t,482.0,460.0,342.0,74.0,170.0,166.0,344.0,425.0,9.73,-1.09,-0.38,11.69,-16.19,-55.31,0.08,0.71,0.69,0.69,0.99,-3.09,0.49,0.0,1.0,3.0
3669,50.805095,t,501.0,490.0,350.0,77.0,167.0,174.0,350.0,429.0,9.75,-0.92,-0.42,25.06,-7.25,-49.13,0.08,0.71,0.69,0.69,1.69,-3.54,-0.01,0.0,1.0,3.0
3670,50.819179,t,497.0,482.0,359.0,77.0,166.0,178.0,354.0,427.0,9.76,-0.76,-0.43,31.12,-1.69,-48.25,0.08,0.71,0.69,0.69,2.38,-3.78,-1.03,0.0,1.0,3.0
3671,50.834364,t,501.0,488.0,361.0,74.0,171.0,191.0,361.0,445.0,9.77,-0.68,-0.42,42.69,4.12,-47.94,0.08,0.71,0.69,0.69,2.47,-2.87,-2.08,0.0,1.0,3.0
3672,50.849476,t,511.0,511.0,359.0,74.0,186.0,194.0,359.0,444.0,9.78,-0.53,-0.37,49.06,12.56,-46.75,0.08,0.71,0.69,0.69,2.38,-1.35,-0.32,0.0,1.0,3.0
3673,50.864539,t,511.0,511.0,355.0,73.0,195.0,203.0,360.0,447.0,9.78,-0.46,-0.35,39.56,10.94,-37.06,0.08,0.71,0.69,0.69,2.79,-1.23,-0.16,0.0,1.0,3.0
3674,50.879652,t,511.0,511.0,353.0,73.0,206.0,216.0,364.0,441.0,9.79,-0.34,-0.31,39.31,8.13,-31.81,0.08,0.71,0.69,0.69,3.26,-1.43,-0.28,0.0,1.0,3.0
3675,50.894715,t,511.0,511.0,344.0,73.0,212.0,214.0,353.0,445.0,9.79,-0.3,-0.3,37.44,5.06,-26.81,0.08,0.71,0.69,0.69,3.53,-2.14,-0.76,0.0,1.0,3.0
3676,50.909804,t,511.0,510.0,331.0,72.0,218.0,212.0,339.0,430.0,9.79,-0.27,-0.29,30.5,1.62,-12.44,0.08,0.71,0.69,0.69,4.01,-3.16,-0.72,0.0,1.0,3.0
3677,50.924808,t,494.0,387.0,292.0,72.0,237.0,208.0,286.0,416.0,9.79,-0.25,-0.28,22.94,3.44,-1.12,0.07,0.71,0.69,0.69,4.46,-3.15,-0.29,0.0,1.0,3.0
3678,50.938955,t,473.0,344.0,274.0,74.0,240.0,210.0,269.0,412.0,9.79,-0.27,-0.27,-8.56,15.75,24.62,0.07,0.71,0.69,0.69,4.17,-3.02,0.08,0.0,1.0,3.0
3679,50.954958,t,439.0,319.0,244.0,75.0,242.0,202.0,254.0,392.0,9.79,-0.37,-0.2,-29.37,23.81,38.56,0.07,0.71,0.7,0.7,3.69,-2.99,0.35,0.0,1.0,3.0
3680,50.968962,t,377.0,294.0,182.0,79.0,247.0,190.0,243.0,339.0,9.78,-0.6,-0.09,-67.5,39.19,78.0,0.07,0.7,0.7,0.7,2.79,-3.83,0.2,0.0,1.0,3.0
3681,50.984965,t,366.0,287.0,168.0,76.0,251.0,191.0,242.0,330.0,9.77,-0.76,-0.02,-77.5,47.19,99.94,0.07,0.7,0.7,0.7,1.15,-6.33,-0.41,0.0,1.0,3.0
3682,50.999021,t,354.0,291.0,162.0,79.0,259.0,197.0,248.0,330.0,9.75,-0.96,0.04,-76.19,48.0,117.25,0.07,0.69,0.71,0.71,0.39,-7.46,-1.06,0.0,1.0,3.0
3683,51.014075,t,383.0,247.0,172.0,76.0,278.0,197.0,266.0,353.0,9.66,-1.63,0.21,59.69,32.56,133.56,0.05,0.68,0.71,0.71,2.03,-5.56,-3.45,0.0,1.0,3.0
3684,51.029171,t,413.0,255.0,176.0,69.0,283.0,196.0,278.0,357.0,9.62,-1.87,0.28,88.69,27.31,141.87,0.03,0.68,0.72,0.72,4.03,-4.01,-2.16,0.0,1.0,3.0
3685,51.044351,t,438.0,266.0,174.0,69.0,309.0,185.0,286.0,374.0,9.56,-2.12,0.36,84.31,35.13,155.0,0.02,0.67,0.72,0.72,4.55,-3.49,-1.64,0.0,1.0,3.0
3686,51.059466,t,478.0,283.0,174.0,71.0,314.0,176.0,281.0,367.0,9.49,-2.39,0.46,81.75,37.88,172.56,0.01,-0.66,-0.73,-0.73,2.83,-2.13,-0.25,0.0,1.0,3.0
3687,51.074568,t,496.0,296.0,175.0,72.0,345.0,181.0,278.0,353.0,9.18,-3.35,0.7,65.81,20.25,214.25,0.04,-0.65,-0.73,-0.73,3.22,3.12,2.45,0.0,1.0,3.0
3688,51.089653,t,476.0,299.0,179.0,72.0,358.0,186.0,281.0,348.0,9.05,-3.68,0.76,43.56,18.75,210.87,0.06,-0.65,-0.73,-0.73,3.26,4.35,2.85,0.0,1.0,3.0
3689,51.104686,t,451.0,296.0,178.0,72.0,368.0,191.0,282.0,346.0,8.91,-3.99,0.8,12.06,20.75,203.37,0.07,-0.64,-0.73,-0.73,1.14,3.0,2.23,0.0,1.0,3.0
3690,51.119719,t,432.0,296.0,169.0,72.0,366.0,206.0,282.0,337.0,8.78,-4.28,0.81,-38.25,-0.06,173.12,0.1,-0.63,-0.73,-0.73,-0.23,0.9,1.04,0.0,1.0,3.0
3691,51.134812,t,410.0,298.0,144.0,69.0,368.0,232.0,283.0,333.0,8.52,-4.79,0.72,-66.56,-15.88,159.19,0.11,-0.63,-0.72,-0.72,0.48,1.25,1.13,0.0,1.0,3.0
3692,51.148883,t,402.0,300.0,135.0,69.0,373.0,251.0,289.0,338.0,8.24,-5.27,0.56,-70.0,-14.94,161.56,0.11,-0.63,-0.72,-0.72,1.48,1.09,0.59,0.0,1.0,3.0
3693,51.16493,t,396.0,308.0,125.0,69.0,375.0,257.0,289.0,358.0,8.09,-5.51,0.48,-61.94,-16.37,165.0,0.12,-0.63,-0.71,-0.71,2.33,0.18,-1.22,0.0,1.0,3.0
3694,51.179148,t,386.0,317.0,126.0,69.0,390.0,285.0,298.0,387.0,7.77,-5.96,0.36,-23.87,-22.31,162.19,0.15,-0.62,-0.7,-0.7,1.16,2.71,0.27,0.0,1.0,3.0
3695,51.195242,t,385.0,338.0,132.0,70.0,386.0,289.0,285.0,375.0,7.44,-6.37,0.27,-12.81,-16.37,151.31,0.16,-0.62,-0.7,-0.7,-0.17,3.84,1.72,0.0,1.0,3.0
3696,51.209245,t,382.0,340.0,131.0,69.0,386.0,284.0,286.0,355.0,7.28,-6.55,0.25,-6.75,-10.94,143.31,0.17,-0.61,-0.7,-0.7,-0.6,4.52,2.03,0.0,1.0,3.0
3697,51.224236,t,360.0,336.0,130.0,69.0,382.0,294.0,289.0,338.0,7.13,-6.72,0.24,-0.94,-9.94,134.5,0.17,-0.61,-0.69,-0.69,-1.19,4.73,1.22,0.0,1.0,3.0
3698,51.23925,t,346.0,333.0,129.0,69.0,393.0,305.0,302.0,335.0,6.84,-7.02,0.2,-2.25,-17.0,120.75,0.2,-0.6,-0.68,-0.68,-2.26,4.49,0.29,0.0,1.0,3.0
3699,51.254253,t,351.0,317.0,126.0,69.0,393.0,310.0,306.0,343.0,6.57,-7.27,0.12,-10.94,-26.31,106.62,0.21,-0.6,-0.68,-0.68,-2.09,5.13,-0.19,0.0,1.0,3.0
3700,51.269259,t,345.0,317.0,124.0,69.0,396.0,312.0,311.0,354.0,6.45,-7.38,0.07,-20.56,-26.69,95.5,0.21,-0.6,-0.68,-0.68,-3.02,5.84,-0.29,0.0,1.0,3.0
3701,51.284344,t,344.0,280.0,113.0,69.0,411.0,314.0,318.0,383.0,6.25,-7.55,-0.08,-38.13,-32.94,73.25,0.22,-0.6,-0.67,-0.67,-2.64,6.19,0.29,0.0,1.0,3.0
3702,51.29942,t,354.0,267.0,120.0,68.0,425.0,314.0,325.0,387.0,6.16,-7.62,-0.17,-43.69,-33.81,63.13,0.22,-0.6,-0.66,-0.66,-2.47,6.04,0.4,0.0,1.0,3.0
3703,51.314726,t,358.0,251.0,121.0,69.0,431.0,314.0,332.0,398.0,6.02,-7.72,-0.36,-40.06,-35.44,50.38,0.23,-0.6,-0.66,-0.66,-2.05,4.46,0.52,0.0,1.0,3.0
3704,51.329788,t,352.0,232.0,120.0,68.0,440.0,309.0,334.0,401.0,5.96,-7.77,-0.44,-32.0,-34.5,46.19,0.23,-0.6,-0.65,-0.65,-2.07,4.13,0.38,0.0,1.0,3.0
3705,51.344817,t,357.0,230.0,118.0,68.0,447.0,310.0,340.0,414.0,5.9,-7.81,-0.5,-22.62,-32.25,37.88,0.23,-0.61,-0.65,-0.65,-2.61,4.09,-0.04,0.0,1.0,3.0
3706,51.35985,t,368.0,217.0,121.0,68.0,470.0,300.0,350.0,437.0,5.79,-7.88,-0.6,-12.13,-30.75,33.63,0.24,-0.61,-0.64,-0.64,-2.43,3.2,-0.9,0.0,1.0,3.0
3707,51.374881,t,373.0,206.0,121.0,69.0,476.0,300.0,362.0,452.0,5.75,-7.91,-0.64,0.62,-26.37,25.06,0.24,-0.61,-0.64,-0.64,-2.21,2.69,-0.72,0.0,1.0,3.0
3708,51.389885,t,373.0,212.0,120.0,68.0,486.0,299.0,360.0,470.0,5.68,-7.95,-0.68,3.69,-23.5,20.06,0.24,-0.61,-0.64,-0.64,-1.96,2.05,-0.65,0.0,1.0,3.0
3709,51.404917,t,376.0,223.0,118.0,68.0,482.0,299.0,360.0,465.0,5.66,-7.97,-0.69,6.37,-19.94,13.38,0.24,-0.61,-0.64,-0.64,-1.21,1.81,-0.64,0.0,1.0,3.0
3710,51.419921,t,383.0,232.0,119.0,68.0,464.0,288.0,355.0,450.0,5.66,-7.97,-0.69,14.44,-14.06,-5.44,0.25,-0.61,-0.64,-0.64,-0.55,2.28,-0.06,0.0,1.0,3.0
3711,51.434924,t,382.0,232.0,118.0,69.0,478.0,293.0,348.0,427.0,5.68,-7.96,-0.68,14.56,-15.25,-16.87,0.25,-0.61,-0.64,-0.64,-0.26,2.41,0.0,0.0,1.0,3.0
3712,51.448957,t,386.0,236.0,116.0,69.0,511.0,296.0,341.0,429.0,5.72,-7.93,-0.69,5.0,-19.19,-44.94,0.24,-0.62,-0.64,-0.64,0.22,2.39,-0.5,0.0,1.0,3.0
3713,51.465987,t,402.0,248.0,102.0,69.0,502.0,280.0,312.0,399.0,5.97,-7.73,-0.72,-1.5,-4.62,-84.37,0.24,-0.62,-0.64,-0.64,2.12,1.97,-1.9,0.0,1.0,3.0
3714,51.47905,t,406.0,278.0,100.0,68.0,487.0,283.0,307.0,395.0,6.1,-7.63,-0.7,13.5,-0.06,-98.44,0.23,-0.62,-0.64,-0.64,2.42,0.24,-2.43,0.0,1.0,3.0
3715,51.495135,t,425.0,293.0,97.0,69.0,440.0,284.0,290.0,396.0,6.24,-7.52,-0.69,13.69,-2.0,-104.56,0.23,-0.63,-0.64,-0.64,3.57,-0.02,0.33,0.0,1.0,3.0
3716,51.509222,t,428.0,304.0,107.0,69.0,415.0,284.0,294.0,378.0,6.39,-7.39,-0.69,-16.81,36.56,-134.87,0.21,-0.63,-0.65,-0.65,9.79,-3.49,0.97,0.0,1.0,3.0
3717,51.524313,t,383.0,308.0,104.0,69.0,374.0,252.0,311.0,352.0,6.91,-6.92,-0.63,0.31,8.94,-136.19,0.19,-0.64,-0.66,-0.66,8.83,-3.92,2.48,0.0,1.0,3.0
3718,51.539491,t,378.0,317.0,111.0,69.0,348.0,250.0,309.0,356.0,7.06,-6.77,-0.63,-2.87,4.75,-124.94,0.19,-0.64,-0.66,-0.66,6.95,-3.79,1.42,0.0,1.0,3.0
3719,51.554625,t,381.0,328.0,125.0,69.0,344.0,252.0,301.0,359.0,7.2,-6.62,-0.62,3.06,6.94,-119.0,0.18,-0.65,-0.66,-0.66,5.13,-1.36,1.34,0.0,1.0,3.0
3720,51.569672,t,364.0,359.0,131.0,69.0,342.0,251.0,301.0,338.0,7.59,-6.18,-0.53,15.31,17.5,-114.62,0.16,-0.65,-0.67,-0.67,3.69,-3.99,1.36,0.0,1.0,3.0
3721,51.584731,t,370.0,389.0,133.0,69.0,347.0,253.0,303.0,333.0,7.71,-6.03,-0.47,41.56,13.75,-110.5,0.15,-0.66,-0.67,-0.67,3.9,-4.3,1.45,0.0,1.0,3.0
3722,51.59976,t,368.0,405.0,134.0,69.0,336.0,250.0,307.0,328.0,7.82,-5.89,-0.39,64.87,13.81,-107.25,0.15,-0.66,-0.68,-0.68,3.67,-3.64,0.96,0.0,1.0,3.0
3723,51.614793,t,369.0,420.0,137.0,69.0,326.0,245.0,312.0,329.0,7.92,-5.76,-0.29,76.37,14.81,-102.81,0.15,-0.66,-0.68,-0.68,2.16,0.85,0.56,0.0,1.0,3.0
3724,51.629848,t,373.0,438.0,143.0,71.0,317.0,243.0,319.0,342.0,8.12,-5.48,-0.1,74.25,14.19,-102.5,0.14,-0.66,-0.69,-0.69,0.68,3.46,-0.61,0.0,1.0,3.0
3725,51.644879,t,386.0,447.0,140.0,69.0,308.0,234.0,305.0,333.0,8.22,-5.34,-0.03,62.88,9.38,-105.69,0.14,-0.66,-0.69,-0.69,0.64,3.14,-0.12,0.0,1.0,3.0
3726,51.659016,t,389.0,455.0,138.0,76.0,310.0,231.0,299.0,336.0,8.42,-5.02,0.06,34.0,-2.87,-114.5,0.13,-0.66,-0.7,-0.7,0.84,2.75,0.03,0.0,1.0,3.0
3727,51.675085,t,390.0,458.0,140.0,78.0,309.0,231.0,297.0,338.0,8.51,-4.85,0.08,12.19,-10.38,-119.44,0.12,-0.67,-0.7,-0.7,1.17,2.24,0.33,0.0,1.0,3.0
3728,51.689145,t,413.0,456.0,144.0,80.0,307.0,228.0,281.0,352.0,8.71,-4.5,0.07,2.75,-12.63,-118.69,0.12,-0.68,-0.7,-0.7,1.24,1.92,0.35,0.0,1.0,3.0
3729,51.705222,t,419.0,452.0,150.0,80.0,306.0,228.0,282.0,354.0,8.88,-4.14,0.03,-5.62,-11.31,-116.19,0.11,-0.68,-0.7,-0.7,1.13,1.58,0.27,0.0,1.0,3.0
3730,51.719265,t,423.0,451.0,150.0,80.0,306.0,227.0,279.0,357.0,8.96,-3.97,0.01,-13.63,-7.06,-114.12,0.1,-0.68,-0.7,-0.7,1.01,0.99,0.04,0.0,1.0,3.0
3731,51.734623,t,426.0,452.0,170.0,81.0,310.0,226.0,278.0,360.0,9.11,-3.62,0.0,-19.12,3.44,-111.0,0.09,-0.69,-0.7,-0.7,1.05,0.58,0.15,0.0,1.0,3.0
3732,51.749676,t,425.0,453.0,174.0,80.0,304.0,225.0,275.0,356.0,9.17,-3.45,0.0,-19.62,10.75,-109.62,0.08,-0.69,-0.7,-0.7,0.32,0.04,-0.13,0.0,1.0,3.0
3733,51.764706,t,425.0,445.0,185.0,78.0,298.0,224.0,279.0,354.0,9.29,-3.11,0.04,-21.62,23.19,-104.75,0.07,-0.69,-0.71,-0.71,-0.7,-0.62,-0.62,0.0,1.0,3.0
3734,51.779708,t,417.0,447.0,194.0,78.0,290.0,224.0,276.0,354.0,9.35,-2.95,0.07,-22.56,27.19,-103.06,0.06,-0.69,-0.71,-0.71,-1.95,-1.47,-1.21,0.0,1.0,3.0
3735,51.794713,t,426.0,450.0,205.0,80.0,282.0,219.0,276.0,358.0,9.44,-2.62,0.12,-16.0,19.94,-97.56,0.05,-0.69,-0.71,-0.71,-1.94,-2.48,-1.05,0.0,1.0,3.0
3736,51.809716,t,423.0,440.0,216.0,79.0,268.0,205.0,271.0,358.0,9.48,-2.48,0.15,-10.25,19.06,-91.37,0.04,-0.69,-0.71,-0.71,-2.77,-1.75,-1.24,0.0,1.0,3.0
