index,time,type,FSR1,FSR2,FSR3,FSR4,FSR5,FSR6,FSR7,FSR8,GravX,GravY,GravZ,GyroX,GyroY,GyroZ,QuatW,QuatX,QuatY,QuatZ,LiAccX,LiAccY,LiAccZ,GyroCal,AccelCal,MagCal
887,12.019835,t,231.0,296.0,264.0,90.0,231.0,241.0,236.0,227.0,9.34,-0.77,-2.87,-17.69,16.5,-1.44,0.08,0.78,0.59,0.59,0.01,-0.25,-0.07,285.75,72.25,-164.81
888,12.039839,t,245.0,311.0,276.0,97.0,240.0,251.0,247.0,235.0,9.35,-0.76,-2.82,-4.94,16.0,-2.69,0.08,0.78,0.59,0.59,-0.37,-0.63,-0.45,286.25,72.75,-164.94
889,12.059845,t,241.0,310.0,273.0,97.0,239.0,249.0,246.0,233.0,9.37,-0.74,-2.77,0.88,11.5,-3.5,0.09,0.78,0.59,0.59,-0.19,-0.17,-0.14,286.31,73.0,-164.87
890,12.079848,t,236.0,316.0,264.0,94.0,234.0,246.0,244.0,230.0,9.38,-0.73,-2.74,-2.37,8.19,-3.44,0.09,0.78,0.59,0.59,-0.3,-0.13,-0.16,286.56,73.19,-165.12
891,12.099852,t,240.0,327.0,262.0,95.0,238.0,251.0,249.0,230.0,9.39,-0.71,-2.72,-7.31,10.69,-3.87,0.09,0.78,0.59,0.59,-0.21,-0.15,0.36,286.81,73.37,-165.31
892,12.119858,t,236.0,318.0,250.0,94.0,230.0,246.0,245.0,225.0,9.4,-0.69,-2.69,-10.13,11.81,-2.44,0.09,0.78,0.6,0.6,-0.13,-0.22,0.32,287.12,73.62,-165.5
893,12.139862,t,237.0,319.0,249.0,95.0,230.0,246.0,246.0,226.0,9.41,-0.68,-2.65,-13.75,15.69,2.37,0.09,0.78,0.6,0.6,-0.35,-0.87,-0.05,287.5,73.87,-165.37
894,12.159867,t,231.0,319.0,243.0,90.0,230.0,245.0,243.0,219.0,9.43,-0.68,-2.6,-10.88,15.31,4.87,0.09,0.77,0.6,0.6,-0.53,-1.17,-0.32,287.75,74.19,-165.06
895,12.179871,t,226.0,310.0,240.0,85.0,230.0,244.0,239.0,216.0,9.44,-0.69,-2.55,-8.69,14.38,6.56,0.09,0.77,0.6,0.6,-0.52,-1.25,-0.34,287.75,74.37,-164.44
896,12.199876,t,222.0,314.0,242.0,88.0,234.0,247.0,238.0,210.0,9.45,-0.73,-2.5,-7.25,11.19,11.94,0.09,0.77,0.6,0.6,-0.57,-1.15,-0.23,287.75,74.56,-163.62
897,12.21988,t,215.0,306.0,235.0,89.0,229.0,243.0,233.0,204.0,9.45,-0.75,-2.48,-8.0,10.63,13.94,0.09,0.77,0.6,0.6,-0.79,-1.09,0.11,287.62,74.69,-162.5
898,12.239885,t,222.0,305.0,237.0,90.0,230.0,246.0,231.0,205.0,9.45,-0.84,-2.44,-6.94,6.37,23.25,0.09,0.77,0.61,0.61,-0.49,-1.35,0.29,287.44,74.69,-161.0
899,12.259889,t,221.0,294.0,229.0,88.0,225.0,242.0,226.0,203.0,9.45,-0.92,-2.43,-4.87,1.62,30.25,0.09,0.77,0.61,0.61,-0.24,-1.48,0.3,287.0,74.5,-159.12
900,12.279894,t,218.0,287.0,220.0,84.0,219.0,238.0,222.0,197.0,9.44,-0.97,-2.44,-5.69,0.25,31.69,0.09,0.77,0.61,0.61,-0.31,-1.7,0.32,286.06,74.25,-157.12
901,12.299898,t,216.0,275.0,215.0,83.0,217.0,235.0,220.0,196.0,9.42,-1.14,-2.45,-7.75,-2.87,36.56,0.08,0.76,0.61,0.61,-0.42,-1.66,0.25,285.56,73.94,-155.06
902,12.319903,t,206.0,250.0,208.0,77.0,212.0,224.0,210.0,184.0,9.41,-1.19,-2.46,-7.56,-3.69,38.19,0.08,0.76,0.61,0.61,-0.16,-1.13,0.11,284.87,73.56,-152.94
903,12.339907,t,202.0,248.0,208.0,76.0,210.0,222.0,205.0,175.0,9.38,-1.38,-2.48,-2.87,-2.87,41.31,0.08,0.76,0.61,0.61,0.18,-0.7,-0.01,284.19,73.12,-150.69
904,12.359912,t,197.0,237.0,204.0,74.0,208.0,218.0,202.0,166.0,9.36,-1.52,-2.48,-5.37,-2.19,42.81,0.07,0.76,0.61,0.61,0.48,-0.51,-0.02,283.44,72.62,-148.5
905,12.379916,t,191.0,242.0,200.0,74.0,210.0,226.0,201.0,160.0,9.33,-1.65,-2.5,-15.19,-1.75,44.19,0.07,0.76,0.61,0.61,0.44,-0.75,0.09,282.75,72.19,-146.5
906,12.399921,t,187.0,244.0,195.0,73.0,210.0,225.0,198.0,158.0,9.3,-1.77,-2.52,-22.5,-2.56,44.5,0.07,0.76,0.61,0.61,0.42,-1.13,0.14,282.37,71.62,-144.81
907,12.419926,t,182.0,234.0,188.0,71.0,205.0,220.0,191.0,154.0,9.29,-1.83,-2.53,-22.0,-4.37,44.31,0.06,0.76,0.6,0.6,0.19,-0.96,0.23,282.06,71.06,-143.25
908,12.43993,t,184.0,233.0,190.0,75.0,215.0,229.0,198.0,159.0,9.25,-1.96,-2.56,-17.25,-7.0,42.56,0.06,0.76,0.6,0.6,-0.15,-0.49,0.37,281.62,70.44,-141.94
909,12.459935,t,180.0,227.0,186.0,71.0,216.0,228.0,195.0,159.0,9.2,-2.13,-2.62,-13.56,-10.5,38.94,0.06,0.75,0.6,0.6,-0.04,-0.1,0.39,281.19,69.81,-140.81
910,12.479939,t,177.0,230.0,182.0,63.0,218.0,227.0,194.0,160.0,9.16,-2.23,-2.67,-15.56,-11.94,34.75,0.06,0.75,0.6,0.6,0.22,0.03,0.27,280.5,69.19,-140.06
911,12.499944,t,175.0,231.0,178.0,62.0,218.0,226.0,196.0,160.0,9.13,-2.31,-2.72,-18.31,-11.44,30.81,0.05,0.75,0.6,0.6,0.0,-0.59,0.42,280.25,68.56,-139.56
912,12.519948,t,175.0,232.0,178.0,61.0,217.0,225.0,196.0,161.0,9.11,-2.35,-2.74,-16.69,-10.75,27.87,0.05,0.75,0.6,0.6,0.15,-0.23,0.54,280.0,68.06,-139.12
913,12.538952,t,175.0,238.0,182.0,58.0,222.0,230.0,202.0,167.0,9.06,-2.46,-2.8,-8.94,-7.19,24.87,0.05,0.75,0.6,0.6,0.3,-0.67,0.5,279.75,67.62,-138.75
914,12.558957,t,174.0,234.0,178.0,57.0,219.0,228.0,200.0,167.0,9.04,-2.52,-2.82,0.0,-7.69,19.06,0.05,0.75,0.59,0.59,-0.18,-0.31,0.62,279.37,67.25,-138.19
915,12.578962,t,175.0,235.0,177.0,55.0,220.0,229.0,200.0,166.0,9.02,-2.58,-2.84,8.75,-7.19,15.19,0.05,0.75,0.59,0.59,-0.13,-0.38,0.56,278.69,66.94,-137.75
916,12.598966,t,169.0,231.0,170.0,52.0,216.0,225.0,199.0,161.0,9.0,-2.63,-2.85,14.81,-6.56,13.44,0.04,0.75,0.59,0.59,-0.18,-0.43,0.57,278.0,66.62,-137.19
917,12.618972,t,172.0,239.0,170.0,52.0,220.0,230.0,202.0,158.0,8.99,-2.7,-2.82,24.44,-4.37,8.81,0.04,0.75,0.6,0.6,-0.16,-0.39,0.57,276.81,66.44,-136.19
918,12.638975,t,179.0,248.0,172.0,53.0,225.0,234.0,207.0,161.0,8.98,-2.77,-2.8,23.5,-4.06,7.44,0.03,0.75,0.6,0.6,-0.27,-0.33,0.42,275.87,66.25,-135.25
919,12.65898,t,170.0,243.0,164.0,51.0,219.0,228.0,203.0,156.0,8.96,-2.82,-2.78,18.94,-4.19,5.75,0.03,0.75,0.6,0.6,-0.45,-0.44,0.2,275.06,66.12,-134.5
920,12.678984,t,179.0,251.0,166.0,52.0,222.0,234.0,208.0,158.0,8.95,-2.85,-2.78,14.13,-7.62,5.0,0.02,0.75,0.6,0.6,-0.32,-0.31,0.25,274.25,65.94,-134.25
921,12.698989,t,170.0,242.0,160.0,50.0,216.0,228.0,204.0,153.0,8.94,-2.88,-2.8,6.94,-9.63,5.44,0.02,0.75,0.6,0.6,-0.11,-0.12,0.0,273.81,65.75,-134.19
922,12.718993,t,174.0,248.0,163.0,51.0,222.0,232.0,209.0,157.0,8.92,-2.9,-2.83,-1.19,-9.31,6.31,0.02,0.76,0.6,0.6,-0.48,-0.27,0.05,273.5,65.5,-134.31
923,12.738998,t,179.0,249.0,165.0,53.0,224.0,234.0,210.0,158.0,8.9,-2.93,-2.87,-4.69,-12.31,7.12,0.02,0.76,0.59,0.59,-0.34,-0.32,0.32,273.31,65.19,-134.31
924,12.760002,t,177.0,247.0,162.0,52.0,220.0,234.0,210.0,157.0,8.88,-2.96,-2.9,-3.62,-12.5,4.87,0.02,0.76,0.59,0.59,-0.17,-0.5,0.23,273.06,64.94,-134.44
925,12.779007,t,180.0,251.0,163.0,52.0,221.0,236.0,214.0,159.0,8.87,-2.96,-2.93,-0.75,-7.75,0.81,0.01,0.76,0.59,0.59,-0.35,-0.81,0.18,272.69,64.75,-134.69
926,12.799011,t,177.0,248.0,162.0,51.0,219.0,235.0,217.0,157.0,8.86,-2.96,-2.95,5.94,-6.56,-1.87,0.01,0.76,0.59,0.59,-0.57,-0.87,0.29,272.56,64.69,-134.81
927,12.820016,t,176.0,249.0,160.0,51.0,216.0,234.0,218.0,154.0,8.86,-2.96,-2.96,9.75,-7.62,-4.75,0.01,0.76,0.59,0.59,-0.98,-0.87,0.51,272.25,64.62,-135.0
928,12.83902,t,185.0,255.0,161.0,52.0,222.0,238.0,218.0,154.0,8.86,-2.95,-2.98,8.13,-7.44,-5.0,0.01,0.76,0.59,0.59,-0.59,-1.16,0.55,272.06,64.62,-135.19
929,12.859025,t,184.0,256.0,158.0,52.0,227.0,237.0,218.0,153.0,8.85,-2.95,-2.99,3.25,-6.31,-3.75,0.01,0.76,0.59,0.59,-0.4,-1.41,0.43,271.94,64.56,-135.44
930,12.879029,t,179.0,261.0,159.0,52.0,228.0,240.0,222.0,155.0,8.85,-2.94,-3.01,1.25,-6.0,-2.5,0.01,0.76,0.59,0.59,-0.37,-1.46,0.14,271.5,64.5,-135.62
931,12.899034,t,177.0,259.0,158.0,51.0,232.0,236.0,220.0,155.0,8.85,-2.93,-3.02,9.38,-6.5,-4.62,0.01,0.76,0.59,0.59,-0.63,-1.29,-0.08,271.31,64.5,-135.81
932,12.919038,t,187.0,264.0,162.0,50.0,235.0,236.0,218.0,157.0,8.85,-2.93,-3.03,20.44,-7.06,-6.56,0.0,0.77,0.59,0.59,-0.9,-0.97,-0.31,270.81,64.5,-135.81
933,12.939043,t,200.0,277.0,169.0,54.0,245.0,238.0,222.0,169.0,8.85,-2.93,-3.03,23.75,-10.5,-8.31,0.0,0.77,0.59,0.59,-0.67,-0.92,-0.28,270.31,64.44,-135.87
934,12.959047,t,208.0,286.0,184.0,54.0,250.0,241.0,222.0,172.0,8.84,-2.93,-3.06,18.44,-17.0,-8.25,0.0,-0.77,-0.59,-0.59,0.51,-1.64,-0.25,269.81,64.37,-136.19
935,12.979054,t,219.0,297.0,195.0,53.0,252.0,242.0,207.0,186.0,8.83,-2.93,-3.09,26.62,-20.75,-10.69,0.01,-0.77,-0.58,-0.58,1.33,-1.06,0.46,268.87,64.19,-136.56
936,12.999056,t,231.0,311.0,210.0,56.0,262.0,243.0,204.0,200.0,8.82,-2.91,-3.12,32.94,-17.75,-17.25,0.01,-0.77,-0.58,-0.58,0.0,1.38,1.29,268.12,64.12,-136.94
937,13.019061,t,242.0,330.0,228.0,55.0,269.0,250.0,202.0,208.0,8.82,-2.88,-3.15,23.44,-18.81,-20.25,0.01,-0.78,-0.58,-0.58,0.25,1.65,0.8,267.5,64.12,-137.5
938,13.039066,t,258.0,372.0,264.0,56.0,278.0,265.0,210.0,219.0,8.83,-2.83,-3.16,23.87,-8.31,-25.5,0.01,-0.78,-0.58,-0.58,0.75,1.55,0.55,267.25,64.25,-138.06
939,13.06007,t,268.0,417.0,285.0,56.0,299.0,266.0,215.0,226.0,8.86,-2.74,-3.16,3.06,-0.31,-37.88,0.01,-0.78,-0.58,-0.58,0.5,0.68,0.72,267.69,64.69,-139.06
940,13.079074,t,279.0,437.0,297.0,58.0,306.0,276.0,219.0,230.0,8.89,-2.63,-3.16,6.44,-4.12,-36.0,0.01,-0.78,-0.58,-0.58,1.75,1.13,0.04,268.0,65.12,-140.19
941,13.099079,t,278.0,458.0,300.0,56.0,304.0,278.0,219.0,230.0,8.92,-2.53,-3.18,1.25,-6.87,-34.38,0.01,-0.79,-0.58,-0.58,2.17,1.88,-0.33,268.5,65.44,-141.44
942,13.119084,t,283.0,488.0,306.0,58.0,307.0,282.0,222.0,239.0,8.94,-2.42,-3.2,-12.38,-2.56,-31.69,0.0,-0.79,-0.58,-0.58,0.96,2.3,0.81,269.31,65.81,-142.87
943,13.139088,t,287.0,507.0,310.0,59.0,309.0,288.0,231.0,243.0,8.97,-2.3,-3.21,-19.94,1.69,-29.94,0.01,0.79,0.58,0.58,0.75,1.68,0.29,270.37,66.12,-144.31
944,13.159093,t,286.0,511.0,314.0,59.0,306.0,293.0,235.0,241.0,9.0,-2.18,-3.2,-31.87,11.75,-31.12,0.01,0.79,0.58,0.58,0.29,0.41,-0.22,271.87,66.69,-145.75
945,13.179097,t,290.0,511.0,311.0,59.0,307.0,290.0,238.0,239.0,9.04,-2.05,-3.19,-28.69,9.81,-31.12,0.02,0.79,0.58,0.58,-0.36,-0.68,-0.15,273.19,67.19,-147.31
946,13.199102,t,282.0,487.0,310.0,57.0,304.0,287.0,237.0,238.0,9.06,-1.93,-3.19,-22.37,6.56,-29.06,0.03,0.79,0.58,0.58,-0.18,-1.06,-0.51,274.44,67.62,-148.75
947,13.219106,t,270.0,472.0,304.0,58.0,290.0,279.0,229.0,231.0,9.09,-1.83,-3.18,-11.63,5.31,-26.94,0.03,0.79,0.58,0.58,-0.39,0.02,-0.87,275.25,68.0,-150.06
948,13.239111,t,268.0,464.0,310.0,68.0,288.0,272.0,227.0,232.0,9.11,-1.73,-3.18,-17.94,0.62,-26.31,0.03,0.79,0.58,0.58,-0.78,0.46,-1.07,276.19,68.25,-151.44
949,13.259116,t,260.0,459.0,310.0,76.0,279.0,269.0,225.0,232.0,9.12,-1.62,-3.2,-28.12,-3.19,-24.81,0.04,0.79,0.58,0.58,-0.03,1.28,-0.89,277.37,68.44,-153.12
950,13.27912,t,244.0,452.0,309.0,78.0,262.0,254.0,220.0,225.0,9.13,-1.5,-3.23,-41.44,0.0,-26.06,0.05,0.79,0.58,0.58,-0.14,0.94,-0.21,278.37,68.69,-155.06
951,13.299124,t,236.0,439.0,314.0,79.0,254.0,253.0,219.0,232.0,9.15,-1.36,-3.25,-50.56,2.37,-27.87,0.06,0.79,0.58,0.58,-0.12,0.43,-0.22,280.31,68.94,-157.25
952,13.319129,t,228.0,401.0,316.0,82.0,246.0,240.0,212.0,228.0,9.16,-1.21,-3.26,-60.13,4.37,-25.5,0.06,0.79,0.57,0.57,-0.03,-0.28,-0.45,282.44,69.19,-159.56
953,13.339133,t,231.0,393.0,326.0,87.0,246.0,228.0,210.0,231.0,9.18,-1.07,-3.26,-53.44,8.25,-24.81,0.08,0.79,0.57,0.57,-0.91,-0.74,-0.56,284.5,69.5,-161.81
954,13.359138,t,225.0,388.0,329.0,88.0,238.0,204.0,199.0,229.0,9.2,-0.94,-3.25,-43.06,7.19,-24.94,0.08,0.79,0.57,0.57,-0.83,-0.91,-0.68,286.25,69.75,-163.81
955,13.379142,t,229.0,399.0,337.0,91.0,239.0,194.0,185.0,232.0,9.21,-0.82,-3.25,-40.81,3.06,-20.06,0.09,0.79,0.57,0.57,-0.27,-0.91,-0.73,287.81,69.94,-165.69
956,13.399147,t,227.0,408.0,341.0,95.0,241.0,171.0,172.0,234.0,9.22,-0.72,-3.25,-37.38,4.31,-17.25,0.1,0.79,0.57,0.57,-0.61,-0.37,-0.2,290.0,70.19,-168.19
957,13.419152,t,222.0,390.0,339.0,102.0,244.0,157.0,162.0,234.0,9.23,-0.62,-3.24,-43.69,4.75,-17.25,0.1,0.79,0.57,0.57,0.03,0.68,-0.47,290.75,70.25,-169.06
958,13.439156,t,226.0,402.0,345.0,114.0,248.0,153.0,154.0,225.0,9.24,-0.51,-3.22,-55.31,9.5,-15.0,0.12,0.79,0.57,0.57,-0.62,0.12,-0.56,293.44,70.62,-171.75
959,13.45916,t,227.0,403.0,336.0,125.0,246.0,150.0,160.0,220.0,9.25,-0.41,-3.2,-49.13,10.88,-14.25,0.13,0.79,0.57,0.57,-1.01,-1.32,-0.96,294.25,70.75,-172.56
960,13.479165,t,233.0,412.0,337.0,134.0,246.0,146.0,170.0,214.0,9.27,-0.31,-3.17,-37.81,9.69,-17.12,0.13,0.79,0.57,0.57,-0.05,-1.58,-0.19,295.75,71.0,-174.25
961,13.49917,t,236.0,415.0,341.0,140.0,245.0,136.0,180.0,218.0,9.28,-0.22,-3.15,-39.56,7.37,-14.25,0.14,0.78,0.57,0.57,0.73,-1.42,-0.34,297.75,71.25,-176.56
962,13.519174,t,233.0,404.0,337.0,143.0,244.0,130.0,178.0,210.0,9.29,-0.15,-3.12,-31.37,9.94,-10.75,0.15,0.78,0.57,0.57,-0.51,-0.68,-0.47,298.25,71.37,-177.12
963,13.539179,t,242.0,411.0,350.0,148.0,253.0,132.0,174.0,210.0,9.3,-0.08,-3.09,-31.37,11.63,-12.75,0.15,0.78,0.57,0.57,-0.61,-0.91,-0.4,299.87,71.69,-179.12
964,13.559183,t,232.0,406.0,358.0,150.0,255.0,132.0,170.0,210.0,9.31,-0.01,-3.05,-26.62,11.19,-13.13,0.16,0.78,0.57,0.57,-0.26,-0.23,-0.12,300.37,71.81,-179.75
965,13.579188,t,243.0,412.0,375.0,154.0,260.0,136.0,166.0,212.0,9.33,0.05,-3.01,-21.75,12.56,-15.13,0.16,0.78,0.57,0.57,-0.28,-0.96,-0.41,301.31,72.06,178.81
966,13.599192,t,242.0,392.0,370.0,148.0,266.0,135.0,161.0,212.0,9.34,0.11,-2.97,-10.25,12.56,-13.13,0.16,0.78,0.57,0.57,-1.0,-0.15,-0.44,302.12,72.37,177.25
967,13.619197,t,249.0,405.0,365.0,153.0,272.0,137.0,164.0,215.0,9.35,0.16,-2.93,-14.63,10.38,-9.88,0.17,0.78,0.57,0.57,-1.45,0.14,-0.66,302.44,72.5,176.81
968,13.639201,t,261.0,406.0,354.0,154.0,273.0,137.0,165.0,217.0,9.36,0.22,-2.9,-32.0,10.13,-12.5,0.17,0.78,0.57,0.57,0.25,-1.12,-0.01,304.0,72.81,174.62
969,13.660206,t,264.0,410.0,346.0,154.0,268.0,136.0,164.0,217.0,9.37,0.31,-2.86,-29.87,12.75,-16.75,0.18,0.77,0.57,0.57,0.45,-1.45,-0.04,304.56,72.87,173.75
970,13.67921,t,270.0,409.0,346.0,159.0,266.0,143.0,166.0,221.0,9.38,0.39,-2.8,-12.31,17.81,-23.12,0.18,0.77,0.57,0.57,1.22,-1.31,0.37,305.69,73.31,171.0
971,13.699215,t,270.0,392.0,338.0,158.0,259.0,144.0,167.0,220.0,9.4,0.47,-2.73,2.94,26.12,-23.44,0.19,0.77,0.57,0.57,0.29,0.01,-0.5,306.06,73.75,169.19
972,13.719219,t,270.0,385.0,329.0,158.0,260.0,151.0,168.0,221.0,9.42,0.55,-2.64,2.62,28.56,-23.25,0.19,0.77,0.58,0.58,0.23,0.12,-0.52,306.25,73.94,168.25
973,13.739225,t,273.0,390.0,330.0,160.0,262.0,154.0,166.0,222.0,9.44,0.63,-2.54,-12.13,32.88,-22.56,0.19,0.77,0.58,0.58,1.57,-0.08,-0.6,307.12,74.75,164.81
974,13.759228,t,268.0,383.0,337.0,160.0,254.0,155.0,170.0,224.0,9.47,0.71,-2.43,-13.81,31.87,-22.06,0.2,0.76,0.58,0.58,2.4,0.35,-0.73,307.94,75.19,162.25
975,13.779233,t,263.0,378.0,337.0,161.0,255.0,157.0,174.0,219.0,9.49,0.8,-2.32,-28.94,34.25,-23.12,0.21,0.76,0.58,0.58,0.79,-1.18,-1.37,309.06,75.69,159.19
976,13.799245,t,272.0,402.0,357.0,169.0,268.0,160.0,178.0,226.0,9.51,0.89,-2.19,-21.19,30.19,-17.75,0.21,0.76,0.59,0.59,1.55,-0.57,-1.91,309.94,76.19,156.37
977,13.819248,t,273.0,389.0,338.0,168.0,270.0,143.0,180.0,224.0,9.53,0.97,-2.09,-24.25,27.56,-16.75,0.22,0.75,0.59,0.59,2.27,-0.28,-2.01,310.94,76.5,153.81
978,13.839265,t,278.0,383.0,324.0,170.0,272.0,140.0,180.0,229.0,9.54,1.03,-2.0,-57.25,23.94,0.88,0.23,0.75,0.59,0.59,2.25,-1.71,-2.4,312.19,76.87,151.62
979,13.859303,t,274.0,356.0,316.0,165.0,266.0,134.0,175.0,229.0,9.56,1.06,-1.89,-57.25,26.69,5.0,0.24,0.74,0.59,0.59,1.62,-2.88,-1.99,313.25,77.44,149.87
980,13.879308,t,274.0,353.0,303.0,160.0,264.0,134.0,178.0,226.0,9.58,1.05,-1.78,-36.56,30.81,11.75,0.24,0.74,0.6,0.6,0.48,-5.23,-2.14,313.56,78.06,149.12
981,13.899312,t,255.0,341.0,296.0,145.0,255.0,133.0,172.0,211.0,9.61,0.96,-1.69,5.06,9.25,24.5,0.24,0.74,0.6,0.6,-0.15,-5.05,-2.3,313.12,78.5,150.31
982,13.919316,t,238.0,334.0,278.0,133.0,251.0,132.0,166.0,196.0,9.61,0.91,-1.69,10.94,3.06,31.12,0.23,0.74,0.6,0.6,0.06,-4.53,-2.54,312.12,78.81,153.62
983,13.939322,t,222.0,343.0,278.0,120.0,240.0,131.0,159.0,184.0,9.63,0.65,-1.72,22.44,-9.13,56.94,0.22,0.74,0.6,0.6,-0.09,-3.66,-2.69,310.56,79.12,159.19
984,13.960325,t,198.0,347.0,260.0,104.0,218.0,124.0,140.0,175.0,9.63,0.53,-1.75,23.75,-14.63,66.25,0.21,0.74,0.6,0.6,-0.6,-3.09,-2.15,308.62,79.19,167.19
985,13.97933,t,184.0,422.0,250.0,99.0,228.0,142.0,130.0,175.0,9.62,0.26,-1.83,25.19,-31.06,87.81,0.2,0.74,0.6,0.6,-0.18,-2.08,-1.14,306.37,78.81,176.62
986,13.999333,t,176.0,440.0,237.0,87.0,228.0,150.0,122.0,170.0,9.59,-0.22,-2.0,25.5,-37.56,98.31,0.18,0.74,0.6,0.6,1.45,-1.83,0.87,303.87,78.06,-173.62
987,14.019339,t,174.0,443.0,233.0,78.0,240.0,184.0,133.0,162.0,9.57,-0.4,-2.07,28.25,-41.94,101.69,0.17,0.74,0.6,0.6,3.06,-1.6,1.57,301.12,76.87,-164.75
988,14.039345,t,182.0,440.0,212.0,77.0,263.0,215.0,153.0,158.0,9.49,-0.95,-2.26,39.94,-41.63,107.44,0.15,0.74,0.6,0.6,1.19,-2.53,0.73,298.0,75.44,-157.0
989,14.059347,t,180.0,430.0,183.0,70.0,269.0,218.0,166.0,149.0,9.45,-1.15,-2.34,46.44,-54.44,107.87,0.13,0.74,0.6,0.6,1.31,-1.5,0.24,294.62,73.44,-151.12
990,14.079359,t,200.0,442.0,172.0,70.0,284.0,226.0,170.0,154.0,9.34,-1.53,-2.56,11.5,-76.81,112.81,0.11,0.74,0.59,0.59,1.09,-4.08,0.04,291.56,71.0,-147.25
991,14.099364,t,214.0,393.0,162.0,69.0,292.0,245.0,169.0,155.0,9.12,-2.1,-2.9,19.5,-74.75,123.37,0.1,0.75,0.59,0.59,2.39,1.71,-0.36,288.5,68.5,-144.06
992,14.119367,t,216.0,357.0,161.0,66.0,292.0,255.0,163.0,155.0,9.04,-2.31,-2.99,38.5,-62.44,119.25,0.08,0.75,0.58,0.58,0.57,1.77,1.0,284.75,66.06,-140.69
993,14.139372,t,221.0,330.0,167.0,61.0,308.0,262.0,165.0,158.0,8.79,-2.89,-3.23,24.75,-62.19,107.75,0.06,0.75,0.58,0.58,1.75,2.88,1.49,281.31,63.69,-138.19
994,14.159378,t,207.0,272.0,165.0,54.0,302.0,258.0,158.0,144.0,8.7,-3.05,-3.32,-5.19,-58.63,108.0,0.04,0.75,0.57,0.57,1.69,1.9,0.93,278.56,61.38,-136.69
995,14.179382,t,214.0,248.0,163.0,54.0,306.0,265.0,164.0,148.0,8.41,-3.49,-3.61,-25.19,-59.88,102.0,0.03,0.74,0.56,0.56,1.28,1.44,0.12,276.44,59.13,-135.94
996,14.199386,t,207.0,232.0,160.0,54.0,311.0,265.0,168.0,150.0,8.21,-3.75,-3.82,-18.25,-63.13,98.75,0.02,0.74,0.55,0.55,0.74,-0.03,0.69,274.37,56.88,-135.5
997,14.21939,t,208.0,217.0,153.0,52.0,319.0,271.0,166.0,148.0,8.1,-3.88,-3.92,1.62,-70.87,96.5,0.01,0.74,0.54,0.54,1.71,-0.22,0.95,271.62,54.56,-135.0
998,14.239395,t,206.0,213.0,150.0,52.0,329.0,277.0,165.0,150.0,7.76,-4.3,-4.17,26.56,-65.62,96.31,0.01,-0.74,-0.54,-0.54,1.36,-0.08,1.12,268.19,52.25,-134.06
999,14.259399,t,200.0,202.0,146.0,50.0,332.0,279.0,165.0,154.0,7.64,-4.46,-4.22,50.94,-64.19,94.25,0.03,-0.74,-0.53,-0.53,0.86,0.97,1.17,264.12,50.06,-132.69
1000,14.279404,t,199.0,200.0,146.0,50.0,338.0,291.0,168.0,162.0,7.28,-4.94,-4.32,69.12,-61.75,84.0,0.05,-0.74,-0.53,-0.53,0.8,1.33,1.08,259.56,47.94,-131.19
1001,14.299408,t,200.0,201.0,150.0,51.0,345.0,294.0,170.0,165.0,7.06,-5.24,-4.32,81.62,-57.0,72.12,0.07,-0.74,-0.52,-0.52,0.65,2.2,1.59,255.0,46.06,-129.5
1002,14.319413,t,200.0,198.0,143.0,53.0,365.0,296.0,171.0,173.0,6.86,-5.53,-4.29,87.5,-54.0,64.62,0.09,-0.74,-0.52,-0.52,0.54,2.7,1.85,238.19,44.38,-127.81
1003,14.339417,t,202.0,199.0,138.0,50.0,370.0,299.0,177.0,175.0,6.67,-5.79,-4.25,83.75,-50.88,55.56,0.11,-0.74,-0.52,-0.52,-0.33,3.54,1.75,238.12,42.88,-126.25
1004,14.359423,t,202.0,195.0,131.0,48.0,364.0,304.0,171.0,177.0,6.49,-6.01,-4.21,72.12,-52.63,47.06,0.13,-0.74,-0.52,-0.52,0.59,3.75,1.74,237.94,41.44,-125.06
1005,14.379427,t,206.0,201.0,130.0,50.0,368.0,311.0,176.0,181.0,6.34,-6.19,-4.18,62.63,-45.31,40.06,0.14,-0.74,-0.52,-0.52,-0.03,4.69,2.59,237.81,40.25,-124.0
1006,14.39943,t,190.0,191.0,118.0,49.0,366.0,307.0,178.0,184.0,6.21,-6.35,-4.15,51.25,-38.94,32.81,0.16,-0.74,-0.51,-0.51,-0.25,4.3,2.43,237.62,39.25,-123.12
1007,14.419435,t,191.0,188.0,106.0,52.0,376.0,316.0,182.0,195.0,6.1,-6.46,-4.13,38.44,-36.94,21.56,0.17,-0.74,-0.51,-0.51,-1.13,4.68,1.86,237.44,38.44,-122.62
1008,14.439439,t,198.0,188.0,109.0,55.0,377.0,325.0,182.0,201.0,6.01,-6.51,-4.18,12.44,-40.69,8.38,0.17,-0.74,-0.51,-0.51,-0.49,4.58,0.99,237.12,37.81,-122.62
1009,14.459445,t,195.0,186.0,104.0,53.0,368.0,318.0,181.0,204.0,5.97,-6.52,-4.23,4.37,-29.75,-6.06,0.17,-0.74,-0.5,-0.5,-0.47,3.47,2.51,236.75,37.5,-123.0
1010,14.47945,t,190.0,197.0,106.0,55.0,378.0,325.0,188.0,214.0,5.97,-6.48,-4.29,-11.06,-19.19,-16.62,0.17,-0.75,-0.5,-0.5,-1.12,3.01,1.23,236.31,37.5,-123.5
1011,14.499453,t,176.0,200.0,104.0,53.0,363.0,317.0,187.0,213.0,6.02,-6.4,-4.34,-7.69,-9.5,-32.75,0.17,-0.75,-0.5,-0.5,-0.71,2.12,1.37,235.75,37.88,-124.06
1012,14.519457,t,167.0,191.0,99.0,50.0,347.0,304.0,176.0,200.0,6.11,-6.31,-4.34,-0.81,2.5,-45.13,0.17,-0.75,-0.5,-0.5,-1.3,1.16,1.36,234.94,38.56,-124.5
1013,14.539463,t,182.0,226.0,110.0,57.0,371.0,318.0,176.0,201.0,6.23,-6.2,-4.33,-0.69,4.06,-55.88,0.16,-0.76,-0.5,-0.5,-0.53,-0.04,0.58,233.87,39.44,-124.94
1014,14.559467,t,172.0,235.0,106.0,51.0,374.0,324.0,171.0,196.0,6.38,-6.07,-4.3,7.06,15.06,-62.0,0.16,-0.76,-0.51,-0.51,0.45,-1.09,1.65,232.75,40.56,-125.31
1015,14.579472,t,178.0,249.0,111.0,50.0,367.0,341.0,178.0,183.0,6.5,-5.95,-4.28,-5.31,6.44,-50.06,0.15,-0.76,-0.51,-0.51,1.29,-4.22,-3.06,231.87,41.56,-125.75
1016,14.599477,t,168.0,248.0,96.0,46.0,355.0,344.0,187.0,159.0,6.59,-5.87,-4.26,31.19,-21.12,-50.06,0.15,-0.77,-0.51,-0.51,6.98,-2.68,-3.31,230.56,42.19,-126.0
1017,14.619481,t,182.0,251.0,102.0,44.0,335.0,328.0,197.0,146.0,6.66,-5.77,-4.28,7.87,-18.5,-52.31,0.15,-0.77,-0.51,-0.51,7.38,-0.04,1.41,229.19,42.75,-126.5
1018,14.639485,t,194.0,253.0,116.0,46.0,310.0,287.0,198.0,144.0,6.74,-5.68,-4.28,26.0,-12.19,-57.88,0.15,-0.77,-0.51,-0.51,3.84,5.59,0.69,227.81,43.44,-127.0
1019,14.65949,t,190.0,261.0,130.0,47.0,297.0,274.0,194.0,133.0,6.89,-5.49,-4.3,-19.31,1.25,-80.62,0.14,-0.78,-0.51,-0.51,1.6,3.91,0.34,226.44,44.63,-128.0
1020,14.679494,t,198.0,272.0,143.0,48.0,299.0,282.0,196.0,136.0,7.08,-5.2,-4.35,-26.06,0.19,-109.94,0.13,-0.79,-0.51,-0.51,3.86,0.11,-0.06,242.06,46.19,-129.87
1021,14.699499,t,200.0,270.0,151.0,48.0,289.0,278.0,195.0,138.0,7.28,-4.9,-4.36,-12.94,7.81,-110.19,0.11,-0.79,-0.51,-0.51,5.1,-1.55,-1.11,244.81,47.94,-131.69
1022,14.719503,t,209.0,267.0,151.0,47.0,270.0,260.0,190.0,136.0,7.46,-4.66,-4.33,2.0,15.0,-87.87,0.11,-0.8,-0.52,-0.52,2.83,-0.16,0.26,246.87,49.5,-132.87
1023,14.739508,t,220.0,273.0,152.0,47.0,266.0,257.0,182.0,144.0,7.6,-4.46,-4.27,-1.44,20.81,-72.69,0.1,-0.8,-0.52,-0.52,0.7,1.66,0.68,248.69,50.88,-133.75
1024,14.759512,t,223.0,283.0,154.0,50.0,262.0,257.0,183.0,145.0,7.74,-4.25,-4.24,-22.75,22.31,-72.44,0.09,-0.8,-0.52,-0.52,0.58,1.97,0.74,250.87,52.19,-134.94
1025,14.779517,t,227.0,297.0,166.0,49.0,263.0,254.0,185.0,155.0,7.89,-4.01,-4.2,-27.94,33.06,-75.25,0.08,-0.8,-0.53,-0.53,0.83,1.49,0.87,253.56,53.63,-136.31
1026,14.799521,t,234.0,314.0,170.0,50.0,266.0,257.0,186.0,166.0,8.04,-3.74,-4.16,-47.5,35.88,-73.69,0.06,-0.8,-0.53,-0.53,1.59,1.4,-0.72,256.69,55.13,-137.94
1027,14.819526,t,230.0,323.0,168.0,51.0,266.0,253.0,185.0,171.0,8.19,-3.48,-4.11,-52.31,41.81,-66.75,0.05,-0.8,-0.54,-0.54,0.56,-0.25,0.46,260.0,56.63,-139.75
1028,14.839531,t,240.0,331.0,172.0,49.0,261.0,246.0,186.0,170.0,8.31,-3.24,-4.05,-40.0,37.5,-57.81,0.03,-0.8,-0.54,-0.54,-0.82,0.32,-0.35,262.87,58.0,-141.25
1029,14.859535,t,241.0,346.0,176.0,49.0,250.0,240.0,184.0,177.0,8.42,-3.03,-3.99,-38.88,35.19,-54.31,0.02,-0.8,-0.54,-0.54,-0.41,1.38,-1.26,265.44,59.19,-142.69
1030,14.87954,t,243.0,368.0,184.0,50.0,250.0,232.0,187.0,184.0,8.52,-2.8,-3.94,-48.13,30.62,-58.88,0.0,-0.8,-0.55,-0.55,-0.27,0.8,-1.1,268.19,60.38,-144.5
1031,14.899544,t,242.0,370.0,183.0,50.0,244.0,228.0,184.0,186.0,8.61,-2.56,-3.91,-55.69,25.37,-56.69,0.01,0.8,0.55,0.55,-1.43,-0.38,0.08,271.12,61.5,-146.75
1032,14.919548,t,238.0,370.0,181.0,53.0,231.0,210.0,170.0,180.0,8.68,-2.33,-3.9,-60.44,20.94,-50.13,0.02,0.8,0.55,0.55,-0.29,-0.32,-0.03,274.06,62.38,-149.12
1033,14.939553,t,241.0,413.0,190.0,56.0,236.0,202.0,173.0,186.0,8.77,-2.11,-3.84,-45.75,36.69,-50.31,0.04,0.8,0.55,0.55,-1.33,0.72,0.27,276.75,63.38,-151.19
1034,14.959558,t,237.0,423.0,201.0,55.0,229.0,190.0,168.0,181.0,8.85,-1.9,-3.75,-36.44,35.0,-50.75,0.04,0.8,0.55,0.55,-2.01,0.44,-0.45,279.06,64.5,-153.06
1035,14.979562,t,238.0,434.0,215.0,58.0,227.0,177.0,162.0,181.0,8.92,-1.7,-3.69,-40.75,28.75,-49.75,0.06,0.79,0.56,0.56,-2.08,-0.01,-0.17,281.37,65.44,-155.19
1036,14.999568,t,235.0,428.0,228.0,57.0,223.0,164.0,159.0,182.0,8.98,-1.49,-3.63,-50.19,26.0,-46.38,0.07,0.79,0.56,0.56,-2.22,-0.42,-0.35,283.81,66.31,-157.56
1037,15.019571,t,237.0,428.0,250.0,63.0,226.0,157.0,158.0,183.0,9.03,-1.3,-3.58,-50.5,25.12,-40.13,0.08,0.79,0.56,0.56,-1.49,-0.91,-0.05,286.25,67.06,-159.94
1038,15.039575,t,245.0,408.0,259.0,72.0,227.0,142.0,158.0,184.0,9.07,-1.14,-3.53,-49.81,21.0,-30.06,0.1,0.79,0.56,0.56,-1.19,-1.22,-0.35,288.37,67.69,-162.06
1039,15.05958,t,239.0,372.0,264.0,74.0,218.0,126.0,150.0,190.0,9.11,-1.0,-3.48,-50.38,22.06,-24.12,0.1,0.79,0.56,0.56,-0.98,-0.81,-0.17,290.44,68.25,-163.94
1040,15.079585,t,243.0,355.0,284.0,77.0,218.0,114.0,149.0,195.0,9.14,-0.87,-3.44,-49.06,17.81,-20.81,0.11,0.79,0.56,0.56,-0.76,-1.16,-0.27,292.31,68.75,-165.69
1041,15.099588,t,237.0,348.0,291.0,81.0,213.0,106.0,150.0,194.0,9.16,-0.75,-3.4,-46.38,15.31,-18.87,0.12,0.79,0.56,0.56,-0.62,-1.73,-0.75,294.06,69.12,-167.44
1042,15.119594,t,219.0,340.0,290.0,86.0,210.0,99.0,146.0,190.0,9.18,-0.65,-3.36,-40.31,16.87,-18.56,0.13,0.78,0.56,0.56,-0.49,-0.98,-0.71,295.62,69.5,-169.0
1043,15.139598,t,221.0,350.0,303.0,93.0,215.0,98.0,151.0,196.0,9.2,-0.55,-3.32,-32.56,13.88,-17.56,0.14,0.78,0.56,0.56,-0.45,-1.66,-0.15,297.56,70.06,-171.19
1044,15.159603,t,218.0,346.0,300.0,93.0,214.0,94.0,153.0,195.0,9.22,-0.47,-3.28,-25.81,13.88,-15.69,0.14,0.78,0.56,0.56,-0.52,-2.46,-0.3,298.12,70.19,-171.81
1045,15.179607,t,223.0,349.0,305.0,97.0,218.0,93.0,154.0,200.0,9.24,-0.4,-3.23,-14.31,15.75,-16.75,0.15,0.78,0.56,0.56,0.01,-2.92,-0.33,299.19,70.75,-173.37
1046,15.199612,t,223.0,338.0,301.0,98.0,217.0,92.0,152.0,200.0,9.27,-0.34,-3.18,1.37,19.0,-18.19,0.15,0.78,0.56,0.56,-0.14,-2.01,-0.23,299.37,70.94,-173.81
1047,15.219617,t,223.0,338.0,298.0,98.0,217.0,100.0,152.0,200.0,9.29,-0.29,-3.11,12.81,21.0,-19.37,0.15,0.78,0.57,0.57,-0.76,-1.03,-1.43,299.5,71.37,-174.62
1048,15.23962,t,223.0,338.0,300.0,98.0,214.0,106.0,153.0,202.0,9.31,-0.25,-3.04,20.81,20.87,-18.81,0.15,0.78,0.57,0.57,-1.11,-0.17,-1.36,299.31,72.0,-175.56
1049,15.259624,t,227.0,333.0,289.0,95.0,204.0,111.0,159.0,198.0,9.34,-0.21,-2.98,10.19,19.62,-16.5,0.15,0.78,0.57,0.57,-0.71,-0.22,-0.99,299.31,72.25,-175.94
1050,15.27963,t,240.0,340.0,286.0,96.0,203.0,120.0,166.0,202.0,9.36,-0.15,-2.92,-5.31,18.75,-15.19,0.15,0.77,0.57,0.57,1.19,-0.99,-0.91,300.0,72.81,-177.44
1051,15.299634,t,247.0,337.0,281.0,98.0,197.0,119.0,165.0,206.0,9.38,-0.09,-2.85,-9.0,21.5,-17.12,0.16,0.77,0.58,0.58,1.79,-0.61,-0.7,300.25,73.06,-178.06
1052,15.31964,t,258.0,341.0,280.0,114.0,198.0,125.0,168.0,209.0,9.4,-0.02,-2.78,-9.38,21.06,-21.44,0.16,0.77,0.58,0.58,3.08,-0.28,-0.72,300.94,73.5,-179.5
1053,15.339643,t,243.0,332.0,277.0,117.0,196.0,126.0,156.0,202.0,9.42,0.05,-2.71,-5.0,21.44,-19.5,0.16,0.77,0.58,0.58,1.55,-2.32,-0.51,301.62,74.06,178.44
1054,15.359648,t,223.0,327.0,282.0,115.0,191.0,126.0,150.0,202.0,9.43,0.07,-2.66,8.63,13.81,-2.87,0.16,0.77,0.58,0.58,2.09,-3.38,-1.59,301.5,74.25,178.37
1055,15.379652,t,223.0,326.0,281.0,116.0,189.0,134.0,150.0,201.0,9.44,0.05,-2.62,13.38,9.06,8.63,0.16,0.77,0.58,0.58,4.25,-2.06,-1.86,300.81,74.56,179.62
1056,15.399657,t,222.0,317.0,268.0,106.0,182.0,130.0,142.0,191.0,9.45,-0.03,-2.58,8.88,11.88,29.56,0.14,0.77,0.59,0.59,4.03,-1.74,-1.88,300.37,74.69,-179.12
1057,15.419661,t,225.0,315.0,258.0,92.0,178.0,134.0,124.0,181.0,9.47,-0.18,-2.53,-9.94,16.5,47.31,0.14,0.77,0.59,0.59,1.8,-3.1,-0.86,296.69,75.06,-173.94
1058,15.439666,t,205.0,326.0,227.0,81.0,162.0,130.0,117.0,166.0,9.47,-0.35,-2.49,-46.19,7.56,74.75,0.14,0.76,0.59,0.59,1.33,-3.93,-0.36,296.37,75.0,-169.5
1059,15.459671,t,195.0,326.0,202.0,74.0,164.0,136.0,127.0,141.0,9.47,-0.56,-2.48,-54.19,5.62,81.5,0.14,0.76,0.6,0.6,0.93,-4.27,-0.39,296.12,74.69,-164.5
1060,15.479675,t,190.0,382.0,169.0,67.0,180.0,158.0,142.0,126.0,9.44,-0.81,-2.5,-73.06,-15.81,103.19,0.14,0.75,0.59,0.59,0.0,-6.92,-3.46,295.94,73.94,-159.5
1061,15.499679,t,190.0,406.0,153.0,58.0,196.0,184.0,149.0,118.0,9.39,-1.09,-2.59,-69.75,-23.44,106.81,0.13,0.75,0.59,0.59,-0.42,-7.54,-4.12,295.69,73.31,-157.12
1062,15.519684,t,198.0,398.0,152.0,58.0,228.0,212.0,158.0,118.0,9.32,-1.41,-2.69,15.44,-34.88,102.94,0.11,0.75,0.59,0.59,-1.07,-4.21,-2.13,292.06,70.94,-149.75
1063,15.539688,t,199.0,386.0,149.0,54.0,242.0,226.0,157.0,121.0,9.2,-1.81,-2.84,56.69,-62.69,120.5,0.09,0.75,0.59,0.59,1.06,-1.73,-0.87,287.94,68.69,-145.12
1064,15.559693,t,175.0,346.0,135.0,52.0,239.0,222.0,151.0,120.0,9.06,-2.25,-3.0,50.94,-62.88,124.87,0.07,0.75,0.58,0.58,1.83,-0.31,-0.63,283.81,66.25,-141.19
1065,15.579698,t,166.0,292.0,132.0,51.0,240.0,223.0,144.0,122.0,8.89,-2.68,-3.14,34.88,-54.94,124.56,0.05,0.75,0.58,0.58,-0.06,1.55,0.62,279.87,63.81,-137.94
1066,15.599702,t,160.0,248.0,128.0,50.0,238.0,224.0,140.0,121.0,8.71,-3.08,-3.28,25.5,-53.63,116.44,0.03,0.75,0.57,0.57,0.16,0.54,0.62,276.56,61.5,-135.81
1067,15.619707,t,163.0,212.0,130.0,50.0,246.0,227.0,135.0,120.0,8.52,-3.42,-3.43,14.94,-58.56,108.81,0.02,0.75,0.57,0.57,0.45,-0.31,0.38,273.44,59.13,-134.37
1068,15.639711,t,155.0,190.0,127.0,50.0,249.0,221.0,134.0,120.0,8.2,-3.92,-3.67,17.75,-60.44,110.69,0.0,0.75,0.56,0.56,0.1,0.67,0.39,270.12,56.75,-133.06
1069,15.659716,t,145.0,178.0,122.0,50.0,251.0,220.0,138.0,120.0,8.08,-4.09,-3.74,19.37,-58.19,108.0,0.02,-0.75,-0.55,-0.55,0.47,0.75,0.93,266.75,54.44,-131.81
1070,15.679721,t,151.0,189.0,122.0,52.0,277.0,225.0,145.0,123.0,7.77,-4.51,-3.91,29.94,-58.63,81.94,0.03,-0.75,-0.55,-0.55,-0.82,0.85,0.49,263.5,52.38,-130.87
1071,15.699725,t,154.0,188.0,120.0,52.0,290.0,233.0,152.0,127.0,7.67,-4.65,-3.95,37.31,-51.81,83.81,0.05,-0.74,-0.54,-0.54,-0.75,0.86,0.5,259.87,50.44,-129.69
1072,15.719729,t,150.0,182.0,120.0,49.0,300.0,238.0,154.0,140.0,7.44,-4.95,-4.01,61.69,-63.25,85.44,0.07,-0.74,-0.54,-0.54,0.11,0.74,0.46,255.37,48.38,-128.25
1073,15.739734,t,165.0,195.0,136.0,51.0,334.0,253.0,164.0,149.0,7.11,-5.42,-4.02,98.87,-59.5,71.0,0.09,-0.74,-0.54,-0.54,0.24,1.55,1.2,250.5,46.44,-126.56
1074,15.759739,t,160.0,195.0,129.0,50.0,334.0,266.0,164.0,151.0,7.01,-5.57,-3.98,105.62,-52.75,67.06,0.11,-0.74,-0.53,-0.53,-0.12,2.61,1.84,235.0,44.81,-124.5
1075,15.779743,t,158.0,200.0,128.0,50.0,354.0,272.0,169.0,158.0,6.74,-5.99,-3.84,97.25,-44.63,55.19,0.14,-0.74,-0.53,-0.53,-0.23,3.39,1.77,234.75,43.38,-122.62
1076,15.799747,t,153.0,191.0,120.0,48.0,350.0,275.0,172.0,159.0,6.65,-6.11,-3.8,88.25,-45.63,51.44,0.15,-0.74,-0.53,-0.53,-0.18,3.91,1.8,234.56,42.06,-121.25
1077,15.819752,t,169.0,199.0,120.0,50.0,360.0,286.0,175.0,166.0,6.48,-6.31,-3.76,45.06,-46.44,51.5,0.17,-0.74,-0.53,-0.53,0.05,3.61,1.49,234.62,40.75,-120.44
1078,15.839757,t,169.0,199.0,120.0,50.0,360.0,286.0,175.0,166.0,6.48,-6.31,-3.76,45.06,-46.44,51.5,0.17,-0.74,-0.53,-0.53,0.05,3.61,1.49,234.62,40.75,-120.44
1079,15.859761,t,180.0,201.0,111.0,49.0,361.0,278.0,158.0,165.0,6.15,-6.59,-3.84,6.44,-42.06,42.13,0.19,-0.74,-0.52,-0.52,0.27,2.73,1.38,235.31,38.25,-120.25
1080,15.879766,t,179.0,191.0,104.0,50.0,378.0,297.0,175.0,185.0,5.93,-6.72,-3.96,-4.44,-38.06,35.63,0.19,-0.74,-0.51,-0.51,0.05,1.95,1.25,235.69,37.25,-120.5
1081,15.89977,t,173.0,187.0,99.0,51.0,376.0,292.0,166.0,184.0,5.87,-6.75,-4.0,-2.62,-35.25,27.69,0.2,-0.74,-0.5,-0.5,0.19,1.87,1.06,235.94,36.38,-120.81
1082,15.919775,t,168.0,180.0,101.0,53.0,378.0,300.0,163.0,189.0,5.72,-6.82,-4.09,10.5,-29.06,16.75,0.2,-0.74,-0.5,-0.5,-0.17,1.93,1.98,236.0,35.69,-120.94
1083,15.939779,t,170.0,177.0,98.0,54.0,379.0,308.0,166.0,195.0,5.67,-6.86,-4.1,16.25,-23.87,3.31,0.21,-0.74,-0.5,-0.5,-0.66,2.02,1.66,235.75,35.38,-120.87
1084,15.959784,t,176.0,173.0,98.0,54.0,374.0,311.0,169.0,199.0,5.66,-6.86,-4.11,11.25,-20.19,-6.75,0.21,-0.75,-0.5,-0.5,-1.05,2.38,1.19,235.37,35.19,-120.87
1085,15.979788,t,186.0,177.0,97.0,53.0,374.0,315.0,169.0,202.0,5.67,-6.85,-4.12,9.0,-12.25,-16.94,0.21,-0.75,-0.5,-0.5,-1.31,2.7,1.45,234.87,35.31,-121.0
1086,15.999793,t,185.0,176.0,96.0,52.0,353.0,302.0,164.0,201.0,5.72,-6.79,-4.15,-12.5,-5.19,-28.0,0.21,-0.75,-0.5,-0.5,-1.6,1.69,1.29,234.37,35.69,-121.37
1087,16.019797,t,189.0,183.0,93.0,54.0,355.0,298.0,164.0,201.0,5.8,-6.7,-4.19,-16.56,0.0,-36.44,0.2,-0.75,-0.5,-0.5,-0.62,1.4,0.97,233.81,36.25,-122.0
1088,16.039802,t,182.0,191.0,95.0,53.0,345.0,288.0,166.0,194.0,5.89,-6.59,-4.22,-20.0,4.19,-41.44,0.2,-0.76,-0.5,-0.5,-0.4,1.48,0.55,233.19,36.94,-122.62
1089,16.059806,t,176.0,198.0,99.0,52.0,325.0,277.0,168.0,186.0,6.01,-6.46,-4.27,-25.87,6.25,-48.5,0.19,-0.76,-0.5,-0.5,0.05,1.29,0.89,232.5,37.75,-123.44
1090,16.079811,t,169.0,205.0,99.0,48.0,331.0,280.0,171.0,180.0,6.15,-6.3,-4.31,-28.81,11.81,-60.0,0.18,-0.76,-0.5,-0.5,0.5,0.35,-0.52,231.75,38.81,-124.31
1091,16.099815,t,156.0,215.0,96.0,46.0,352.0,295.0,167.0,174.0,6.32,-6.11,-4.33,-36.19,24.75,-67.87,0.17,-0.77,-0.5,-0.5,0.26,-6.56,-5.45,230.87,40.13,-125.31
1092,16.119827,t,153.0,230.0,106.0,45.0,364.0,329.0,171.0,176.0,6.46,-5.92,-4.38,-18.44,-3.75,-58.75,0.16,-0.77,-0.5,-0.5,3.45,-11.36,-7.81,230.0,41.19,-126.5
1093,16.139832,t,155.0,220.0,98.0,43.0,319.0,299.0,181.0,142.0,6.49,-5.9,-4.36,64.44,-39.31,-34.88,0.16,-0.78,-0.5,-0.5,6.87,-3.32,0.72,228.44,41.5,-126.44
1094,16.159836,t,167.0,206.0,112.0,44.0,279.0,258.0,184.0,119.0,6.52,-5.95,-4.25,80.81,-12.56,-31.81,0.17,-0.78,-0.5,-0.5,2.0,6.98,2.61,227.0,41.69,-125.5
1095,16.17984,t,179.0,222.0,125.0,45.0,278.0,254.0,184.0,124.0,6.64,-5.89,-4.15,27.75,1.81,-68.31,0.17,-0.78,-0.51,-0.51,-0.53,8.25,-1.39,225.44,42.63,-125.12
1096,16.199845,t,169.0,241.0,133.0,43.0,274.0,261.0,182.0,123.0,6.82,-5.63,-4.21,-33.06,-15.38,-108.81,0.16,-0.78,-0.51,-0.51,2.64,3.97,0.13,223.62,44.13,-126.75
1097,16.21985,t,174.0,246.0,149.0,46.0,282.0,278.0,191.0,130.0,7.05,-5.23,-4.35,-52.19,-12.13,-140.06,0.14,-0.79,-0.51,-0.51,7.38,-3.93,-1.31,238.19,46.0,-129.69
1098,16.239854,t,178.0,242.0,154.0,44.0,268.0,263.0,185.0,132.0,7.28,-4.89,-4.37,-2.62,4.25,-121.19,0.13,-0.8,-0.51,-0.51,7.58,-4.61,-0.77,241.12,47.94,-131.75
1099,16.259859,t,202.0,249.0,155.0,49.0,251.0,242.0,177.0,126.0,7.45,-4.68,-4.32,20.81,9.69,-87.87,0.12,-0.8,-0.51,-0.51,1.09,1.88,1.33,242.69,49.44,-132.69
1100,16.279863,t,220.0,270.0,157.0,54.0,245.0,247.0,177.0,132.0,7.59,-4.49,-4.28,6.87,6.5,-81.0,0.12,-0.81,-0.52,-0.52,0.45,3.8,1.34,244.06,50.69,-133.62
1101,16.299868,t,218.0,286.0,161.0,50.0,246.0,243.0,177.0,141.0,7.75,-4.24,-4.24,-10.88,23.37,-91.0,0.11,-0.81,-0.52,-0.52,0.89,1.65,1.62,246.31,52.19,-135.0
1102,16.319872,t,218.0,286.0,161.0,50.0,246.0,243.0,177.0,141.0,7.75,-4.24,-4.24,-10.88,23.37,-91.0,0.11,-0.81,-0.52,-0.52,0.89,1.65,1.62,246.31,52.19,-135.0
1103,16.339877,t,226.0,306.0,166.0,50.0,259.0,253.0,181.0,160.0,7.94,-3.69,-4.09,-38.19,38.31,-80.31,0.08,-0.81,-0.53,-0.53,0.95,-0.85,-0.46,252.25,55.75,-137.94
1104,16.360882,t,223.0,308.0,150.0,48.0,238.0,239.0,167.0,160.0,8.24,-3.42,-4.05,-47.13,36.25,-68.94,0.07,-0.81,-0.54,-0.54,-0.36,0.36,0.53,255.37,57.25,-139.75
1105,16.379886,t,253.0,360.0,171.0,56.0,243.0,250.0,179.0,178.0,8.37,-3.18,-3.98,-41.25,40.38,-61.31,0.06,-0.81,-0.54,-0.54,-0.68,1.16,0.4,258.31,58.63,-141.37
1106,16.39989,t,250.0,375.0,173.0,55.0,235.0,243.0,171.0,178.0,8.48,-2.93,-3.93,-47.5,33.75,-65.69,0.04,-0.81,-0.55,-0.55,0.68,1.6,-0.67,261.19,59.94,-143.19
1107,16.419895,t,258.0,398.0,178.0,55.0,230.0,236.0,171.0,186.0,8.6,-2.65,-3.87,-71.81,44.06,-65.69,0.02,-0.81,-0.55,-0.55,-0.95,-0.32,-0.25,264.75,61.38,-145.56
1108,16.439899,t,265.0,422.0,188.0,54.0,227.0,220.0,167.0,190.0,8.71,-2.37,-3.81,-70.62,38.25,-60.19,0.01,-0.81,-0.55,-0.55,-1.43,-0.11,-0.76,268.44,62.69,-148.12
1109,16.459904,t,264.0,438.0,211.0,56.0,227.0,208.0,167.0,194.0,8.8,-2.12,-3.75,-54.69,35.56,-57.19,0.01,0.81,0.56,0.56,-1.46,-0.04,-0.85,271.5,63.88,-150.44
1110,16.479908,t,267.0,447.0,226.0,57.0,220.0,189.0,161.0,191.0,8.89,-1.88,-3.68,-49.94,34.06,-57.19,0.02,0.8,0.56,0.56,-1.89,-0.2,-0.15,274.31,65.0,-152.87
1111,16.499913,t,260.0,411.0,240.0,60.0,218.0,164.0,156.0,188.0,8.96,-1.65,-3.61,-58.44,31.75,-51.44,0.04,0.8,0.56,0.56,-1.69,-1.16,-0.66,277.12,66.06,-155.44
1112,16.519917,t,266.0,400.0,250.0,70.0,216.0,146.0,154.0,190.0,9.02,-1.44,-3.55,-51.5,26.87,-45.75,0.05,0.8,0.56,0.56,-1.6,-1.28,-0.39,279.69,66.94,-157.94
1113,16.539922,t,264.0,356.0,256.0,75.0,210.0,129.0,147.0,194.0,9.07,-1.23,-3.5,-56.69,25.5,-44.31,0.06,0.8,0.56,0.56,-1.99,-1.4,0.01,282.25,67.69,-160.56
1114,16.559926,t,264.0,341.0,276.0,81.0,205.0,119.0,140.0,203.0,9.11,-1.05,-3.45,-48.88,21.75,-34.75,0.07,0.8,0.56,0.56,-1.21,-1.84,-0.59,284.56,68.37,-163.0
1115,16.579931,t,263.0,338.0,281.0,87.0,206.0,109.0,138.0,208.0,9.15,-0.9,-3.39,-46.81,23.87,-29.25,0.09,0.8,0.57,0.57,-1.92,-1.48,-0.52,286.56,69.0,-165.06
1116,16.599936,t,249.0,330.0,281.0,95.0,206.0,103.0,142.0,211.0,9.18,-0.77,-3.34,-42.56,18.56,-22.94,0.09,0.79,0.57,0.57,-0.59,-1.29,-0.96,288.31,69.5,-166.94
1117,16.61894,t,241.0,331.0,286.0,106.0,207.0,100.0,145.0,212.0,9.2,-0.67,-3.3,-39.31,19.25,-16.19,0.1,0.79,0.57,0.57,-0.93,-1.61,-0.7,289.81,69.87,-168.44
1118,16.639945,t,236.0,333.0,287.0,118.0,204.0,94.0,145.0,214.0,9.23,-0.59,-3.25,-37.88,13.69,-11.5,0.11,0.79,0.57,0.57,-0.11,-2.17,-1.02,291.12,70.25,-169.69
1119,16.65995,t,242.0,340.0,292.0,126.0,206.0,92.0,151.0,218.0,9.25,-0.51,-3.21,-33.69,16.75,-12.81,0.11,0.79,0.57,0.57,0.12,-1.72,-0.78,292.37,70.56,-170.87
1120,16.679954,t,242.0,337.0,295.0,129.0,204.0,92.0,149.0,217.0,9.27,-0.43,-3.16,-21.69,16.94,-16.75,0.12,0.79,0.57,0.57,0.59,-2.46,-0.8,293.44,70.94,-172.12
1121,16.699958,t,240.0,330.0,288.0,126.0,195.0,98.0,149.0,217.0,9.29,-0.36,-3.1,-2.44,21.94,-21.44,0.12,0.79,0.57,0.57,0.36,-2.86,-0.82,294.06,71.44,-173.31
1122,16.719963,t,242.0,324.0,288.0,123.0,194.0,107.0,154.0,220.0,9.32,-0.3,-3.02,26.94,22.62,-24.94,0.12,0.78,0.58,0.58,0.7,-2.06,-1.33,294.06,71.87,-174.19
1123,16.739967,t,241.0,319.0,289.0,117.0,188.0,112.0,157.0,221.0,9.34,-0.27,-2.94,52.69,22.25,-23.56,0.12,0.78,0.58,0.58,1.88,-0.59,-1.27,293.25,72.37,-174.62
1124,16.759973,t,236.0,326.0,293.0,118.0,186.0,119.0,160.0,221.0,9.37,-0.26,-2.86,36.88,24.0,-16.5,0.12,0.78,0.58,0.58,2.88,-0.07,-1.4,292.44,72.87,-174.75
1125,16.779976,t,238.0,328.0,292.0,118.0,183.0,127.0,162.0,221.0,9.39,-0.23,-2.79,4.81,21.44,-9.44,0.12,0.78,0.59,0.59,4.27,-2.15,-1.59,292.37,73.37,-175.12
1126,16.79898,t,238.0,328.0,292.0,118.0,183.0,127.0,162.0,221.0,9.39,-0.23,-2.79,4.81,21.44,-9.44,0.12,0.78,0.59,0.59,3.9,-2.75,-1.63,292.87,73.69,-175.5
1127,16.818985,t,214.0,328.0,270.0,101.0,162.0,136.0,147.0,199.0,9.42,-0.23,-2.69,-26.62,13.56,20.06,0.12,0.78,0.59,0.59,2.8,-5.23,-2.07,293.31,73.94,-174.94
1128,16.83999,t,194.0,343.0,238.0,86.0,162.0,139.0,145.0,180.0,9.43,-0.34,-2.65,-17.56,10.56,45.19,0.12,0.77,0.59,0.59,0.92,-5.19,-1.12,293.06,74.12,-172.56
1129,16.858994,t,183.0,382.0,206.0,78.0,160.0,145.0,139.0,158.0,9.43,-0.53,-2.63,-21.62,6.5,71.31,0.11,0.77,0.59,0.59,-0.67,-5.56,-0.07,291.87,73.87,-165.87
1130,16.878999,t,176.0,425.0,168.0,69.0,170.0,154.0,142.0,140.0,9.4,-0.79,-2.64,-48.13,-4.06,98.44,0.11,0.77,0.59,0.59,-1.09,-5.77,-0.6,291.19,73.19,-160.5
1131,16.899003,t,183.0,415.0,148.0,69.0,189.0,181.0,151.0,134.0,9.35,-1.1,-2.7,-39.63,-17.56,111.44,0.1,0.76,0.59,0.59,-0.33,-4.77,-1.47,290.56,72.62,-157.75
1132,16.920008,t,202.0,405.0,154.0,58.0,214.0,214.0,154.0,134.0,9.27,-1.47,-2.8,8.63,-35.06,115.06,0.09,0.76,0.59,0.59,0.82,-3.35,-1.3,286.75,70.19,-149.75
1133,16.939012,t,200.0,377.0,151.0,54.0,241.0,222.0,150.0,134.0,9.16,-1.88,-2.93,20.19,-45.75,128.25,0.08,0.76,0.59,0.59,2.94,-0.78,-1.5,285.12,69.12,-147.25
1134,16.959017,t,189.0,345.0,142.0,52.0,246.0,222.0,146.0,136.0,9.02,-2.31,-3.07,6.0,-48.06,133.87,0.05,0.76,0.58,0.58,1.83,0.57,-0.16,281.87,66.87,-143.0
1135,16.979021,t,176.0,287.0,134.0,51.0,234.0,218.0,141.0,133.0,8.84,-2.7,-3.24,-9.75,-57.06,126.19,0.04,0.76,0.57,0.57,0.87,0.89,0.22,277.81,63.25,-139.25
1136,16.999032,t,158.0,234.0,129.0,49.0,233.0,214.0,134.0,125.0,8.66,-3.04,-3.43,-10.44,-59.31,116.25,0.03,0.76,0.57,0.57,0.69,-0.16,0.46,276.56,62.06,-138.44
1137,17.019037,t,150.0,202.0,132.0,51.0,234.0,208.0,130.0,125.0,8.46,-3.37,-3.62,-7.37,-58.38,113.0,0.01,0.76,0.56,0.56,0.46,-0.24,0.85,272.62,58.5,-136.31
1138,17.039041,t,134.0,168.0,124.0,49.0,234.0,202.0,127.0,119.0,8.26,-3.68,-3.77,-1.75,-48.56,109.56,0.0,-0.76,-0.55,-0.55,-0.12,-0.19,0.51,271.25,57.44,-135.62
1139,17.061047,t,136.0,161.0,118.0,51.0,248.0,206.0,134.0,111.0,8.04,-4.01,-3.9,8.38,-54.06,118.12,0.02,-0.75,-0.54,-0.54,0.43,0.61,-0.13,268.25,55.13,-134.25
1140,17.080051,t,126.0,174.0,109.0,52.0,260.0,217.0,138.0,114.0,7.81,-4.33,-4.04,19.5,-58.56,103.5,0.03,-0.75,-0.54,-0.54,0.1,-0.17,0.56,263.06,51.75,-132.44
1141,17.099055,t,138.0,176.0,113.0,51.0,285.0,226.0,148.0,120.0,7.59,-4.63,-4.12,50.81,-52.75,91.94,0.05,-0.75,-0.53,-0.53,-0.58,-0.09,0.84,261.06,50.69,-131.62
1142,17.119059,t,142.0,183.0,118.0,50.0,302.0,240.0,153.0,124.0,7.34,-4.98,-4.15,85.56,-65.06,93.44,0.08,-0.75,-0.53,-0.53,0.36,1.67,0.91,253.5,47.44,-128.75
1143,17.139064,t,142.0,188.0,119.0,49.0,324.0,245.0,154.0,125.0,7.1,-5.34,-4.13,104.56,-58.19,86.19,0.1,-0.75,-0.53,-0.53,0.11,2.17,1.49,250.81,46.38,-127.62
1144,17.159068,t,142.0,196.0,126.0,50.0,340.0,255.0,159.0,133.0,6.88,-5.69,-4.03,112.12,-46.63,76.06,0.13,-0.74,-0.53,-0.53,0.5,3.94,2.22,234.81,43.75,-124.19
1145,17.179073,t,143.0,196.0,120.0,50.0,361.0,271.0,162.0,141.0,6.69,-5.99,-3.92,84.5,-45.06,59.25,0.15,-0.74,-0.53,-0.53,-0.45,4.53,2.06,234.75,42.25,-122.44
1146,17.199077,t,143.0,191.0,124.0,50.0,366.0,271.0,160.0,147.0,6.51,-6.22,-3.87,68.37,-46.63,52.63,0.16,-0.74,-0.53,-0.53,-0.64,4.76,1.96,234.75,40.94,-121.44
1147,17.219082,t,143.0,191.0,124.0,50.0,366.0,271.0,160.0,147.0,6.51,-6.22,-3.87,68.37,-46.63,52.63,0.16,-0.74,-0.53,-0.52,-1.03,4.52,1.99,234.87,39.75,-121.19
1148,17.239086,t,146.0,182.0,103.0,50.0,365.0,271.0,159.0,158.0,6.2,-6.48,-3.94,11.63,-46.63,34.19,0.18,-0.74,-0.51,-0.51,-0.73,4.41,2.17,235.0,38.75,-121.37
1149,17.260092,t,143.0,164.0,110.0,54.0,368.0,278.0,163.0,173.0,6.08,-6.55,-4.02,4.5,-38.75,26.69,0.18,-0.75,-0.51,-0.51,-0.61,4.31,2.26,235.06,37.94,-121.56
1150,17.279095,t,138.0,158.0,109.0,57.0,355.0,278.0,161.0,178.0,5.99,-6.6,-4.07,-0.81,-33.44,7.94,0.19,-0.75,-0.5,-0.5,-0.34,4.31,0.97,235.0,37.38,-121.87
1151,17.2991,t,136.0,162.0,107.0,56.0,350.0,275.0,161.0,176.0,5.93,-6.61,-4.14,-3.87,-28.0,-0.5,0.19,-0.75,-0.5,-0.5,-0.94,3.23,1.09,234.69,37.19,-122.25
1152,17.319104,t,136.0,162.0,107.0,56.0,350.0,275.0,161.0,176.0,5.93,-6.61,-4.14,-3.87,-16.37,-23.69,0.19,-0.75,-0.5,-0.5,-1.33,2.14,0.5,234.06,37.31,-122.5
1153,17.33911,t,125.0,170.0,99.0,56.0,330.0,270.0,156.0,178.0,5.97,-6.54,-4.19,10.25,-10.81,-31.19,0.19,-0.76,-0.5,-0.5,-1.16,2.24,1.04,233.19,37.81,-122.75
1154,17.359113,t,119.0,177.0,103.0,54.0,331.0,280.0,150.0,180.0,6.06,-6.46,-4.19,0.06,-6.19,-47.25,0.18,-0.76,-0.5,-0.5,-0.72,1.81,-0.64,232.19,38.63,-123.25
1155,17.379118,t,116.0,194.0,108.0,50.0,332.0,288.0,142.0,163.0,6.27,-6.28,-4.16,20.31,6.0,-70.87,0.18,-0.76,-0.51,-0.51,-0.05,1.96,0.84,230.75,39.75,-123.5
1156,17.399122,t,121.0,206.0,97.0,47.0,338.0,293.0,163.0,134.0,6.35,-6.2,-4.15,5.62,5.0,-74.25,0.17,-0.77,-0.51,-0.51,1.22,0.11,-1.57,229.31,41.0,-124.37
1157,17.419127,t,121.0,206.0,97.0,47.0,338.0,293.0,163.0,134.0,6.35,-6.2,-4.15,-44.13,-23.56,-87.75,0.16,-0.78,-0.5,-0.5,8.26,4.42,-3.85,227.81,42.13,-126.25
1158,17.439132,t,154.0,226.0,102.0,46.0,305.0,296.0,182.0,107.0,6.65,-5.7,-4.39,-61.75,-28.81,-94.62,0.15,-0.79,-0.5,-0.5,7.68,-6.34,-3.94,226.31,43.25,-129.12
1159,17.460137,t,165.0,241.0,109.0,47.0,285.0,289.0,181.0,107.0,6.79,-5.37,-4.6,-48.19,-6.56,-87.25,0.13,-0.79,-0.5,-0.5,6.23,-7.51,-1.45,225.0,44.44,-131.62
1160,17.479141,t,165.0,241.0,109.0,47.0,285.0,289.0,181.0,107.0,6.79,-5.37,-4.6,-48.19,-6.56,-87.25,0.13,-0.79,-0.5,-0.5,6.23,1.15,1.89,241.75,45.63,-132.37
1161,17.499144,t,185.0,238.0,135.0,48.0,242.0,242.0,157.0,106.0,7.09,-4.99,-4.57,42.5,4.44,-84.19,0.12,-0.8,-0.5,-0.5,1.32,4.25,1.51,242.56,47.0,-132.75
1162,17.51915,t,185.0,238.0,135.0,48.0,242.0,242.0,157.0,106.0,7.09,-4.99,-4.57,42.5,4.44,-84.19,0.12,-0.8,-0.51,-0.51,1.16,1.11,1.35,244.81,48.69,-133.94
1163,17.539154,t,203.0,258.0,148.0,44.0,242.0,253.0,160.0,113.0,7.47,-4.51,-4.45,-4.12,34.88,-102.12,0.1,-0.81,-0.51,-0.51,2.82,0.09,1.44,247.62,50.63,-135.19
1164,17.56016,t,217.0,266.0,157.0,44.0,234.0,251.0,162.0,125.0,7.68,-4.25,-4.36,-8.31,39.81,-84.5,0.09,-0.81,-0.52,-0.52,1.79,1.23,0.18,250.12,52.38,-136.25
1165,17.579163,t,223.0,274.0,160.0,45.0,230.0,243.0,162.0,136.0,7.92,-3.9,-4.25,-11.69,30.81,-76.56,0.08,-0.81,-0.53,-0.53,1.04,1.05,-0.46,252.5,53.88,-137.37
1166,17.599168,t,230.0,292.0,164.0,46.0,229.0,239.0,162.0,146.0,8.0,-3.79,-4.21,-10.81,31.06,-78.87,0.07,-0.81,-0.53,-0.53,0.19,1.47,0.22,254.69,55.38,-138.62
1167,17.619173,t,230.0,292.0,164.0,46.0,229.0,239.0,162.0,146.0,8.0,-3.79,-4.21,-10.81,31.06,-77.06,0.06,-0.81,-0.54,-0.54,-0.11,0.7,0.41,257.25,56.88,-140.19
1168,17.639177,t,244.0,336.0,173.0,50.0,226.0,238.0,161.0,160.0,8.27,-3.29,-4.09,-47.44,30.19,-70.94,0.05,-0.81,-0.54,-0.54,0.67,0.42,0.78,260.31,58.19,-142.19
1169,17.659181,t,248.0,368.0,180.0,53.0,223.0,236.0,161.0,170.0,8.45,-2.89,-4.04,-46.63,33.13,-68.69,0.03,-0.81,-0.54,-0.54,0.9,-0.1,1.16,263.37,59.5,-144.37
1170,17.679186,t,248.0,388.0,183.0,54.0,222.0,227.0,162.0,174.0,8.57,-2.63,-3.96,-46.63,42.63,-64.44,0.02,-0.81,-0.55,-0.55,0.12,1.47,0.75,266.31,60.94,-146.31
1171,17.69919,t,246.0,407.0,187.0,53.0,217.0,217.0,162.0,178.0,8.63,-2.5,-3.91,-71.81,51.44,-58.69,0.0,-0.81,-0.55,-0.55,-0.78,0.89,-0.81,269.81,62.38,-148.5
1172,17.720195,t,246.0,407.0,187.0,53.0,217.0,217.0,162.0,178.0,8.63,-2.5,-3.91,-71.81,51.44,-53.88,0.02,0.8,0.55,0.55,-2.05,0.34,-0.72,273.25,63.81,-150.62
1173,17.739199,t,246.0,410.0,210.0,54.0,216.0,186.0,158.0,183.0,8.84,-1.99,-3.72,-61.0,33.5,-54.56,0.03,0.8,0.56,0.56,-1.94,-0.18,-1.44,276.25,64.94,-153.06
1174,17.759204,t,246.0,410.0,210.0,54.0,216.0,186.0,158.0,183.0,8.84,-1.99,-3.72,-61.0,33.5,-54.56,0.03,0.8,0.56,0.56,-1.94,-0.18,-1.44,276.25,64.94,-156.06
1175,17.779208,t,244.0,391.0,238.0,61.0,201.0,149.0,150.0,181.0,9.02,-1.36,-3.58,-65.81,28.94,-52.5,0.06,0.8,0.56,0.56,-2.54,-1.86,-0.01,282.5,66.94,-159.19
1176,17.799213,t,242.0,352.0,242.0,72.0,200.0,134.0,148.0,182.0,9.08,-1.15,-3.51,-57.69,29.81,-40.88,0.08,0.8,0.56,0.56,-2.01,-2.35,0.38,285.19,67.81,-161.81
1177,17.819218,t,242.0,352.0,242.0,72.0,200.0,134.0,148.0,182.0,9.08,-1.15,-3.51,-57.69,29.81,-40.88,0.08,0.79,0.56,0.56,-1.48,-1.7,-0.24,287.37,68.62,-164.12
1178,17.839222,t,228.0,324.0,250.0,81.0,189.0,114.0,154.0,175.0,9.18,-0.81,-3.33,-39.69,33.81,-34.94,0.1,0.79,0.57,0.57,-1.88,-1.62,-0.41,289.31,69.44,-166.25
1179,17.859227,t,228.0,324.0,250.0,81.0,189.0,114.0,154.0,175.0,9.18,-0.81,-3.33,-39.69,33.81,-34.94,0.1,0.79,0.57,0.57,-1.88,-1.62,-0.41,290.81,70.12,-168.0
1180,17.879231,t,213.0,328.0,267.0,93.0,184.0,110.0,155.0,178.0,9.24,-0.6,-3.2,-19.87,15.88,-18.56,0.11,0.79,0.57,0.57,-0.57,-1.62,-1.35,291.81,70.56,-169.31
1181,17.899236,t,219.0,330.0,271.0,96.0,183.0,108.0,160.0,181.0,9.26,-0.52,-3.16,-30.56,14.88,-14.31,0.12,0.79,0.57,0.57,-0.57,-2.31,-1.21,292.87,70.87,-170.5
1182,17.91924,t,219.0,330.0,271.0,96.0,183.0,108.0,160.0,181.0,9.26,-0.52,-3.16,-30.56,14.88,-13.81,0.12,0.78,0.57,0.57,-0.83,-2.42,-0.74,294.19,71.25,-171.94
1183,17.939245,t,218.0,319.0,269.0,106.0,182.0,101.0,158.0,189.0,9.3,-0.36,-3.06,-18.94,15.44,-14.44,0.13,0.78,0.57,0.57,-0.03,-3.46,-1.15,295.19,71.62,-173.12
1184,17.959249,t,218.0,319.0,269.0,106.0,182.0,101.0,158.0,189.0,9.3,-0.36,-3.06,-18.94,15.44,-14.44,0.13,0.78,0.57,0.57,-0.03,-3.46,-1.15,295.19,71.62,-173.12
1185,17.979254,t,215.0,300.0,266.0,104.0,173.0,109.0,156.0,188.0,9.34,-0.27,-2.95,33.06,17.56,-22.37,0.13,0.78,0.58,0.58,1.12,-1.74,-1.43,295.12,72.37,-174.62
1186,17.999258,t,226.0,308.0,274.0,105.0,169.0,116.0,158.0,189.0,9.37,-0.24,-2.87,36.88,23.0,-21.06,0.13,0.78,0.58,0.58,1.91,-1.26,-1.44,294.56,72.81,-175.12
1187,18.019263,t,226.0,308.0,274.0,105.0,169.0,116.0,158.0,189.0,9.37,-0.24,-2.87,36.88,23.0,-21.06,0.13,0.78,0.58,0.58,3.11,-1.56,-1.02,294.25,73.31,-175.5
1188,18.039267,t,225.0,299.0,273.0,104.0,164.0,126.0,160.0,190.0,9.41,-0.21,-2.73,20.5,18.56,-5.94,0.12,0.78,0.59,0.59,3.75,-2.32,-1.01,293.94,73.75,-175.56
1189,18.059273,t,225.0,299.0,273.0,104.0,164.0,126.0,160.0,190.0,9.41,-0.21,-2.73,20.5,18.56,-5.94,0.12,0.78,0.59,0.59,3.91,-2.07,-1.33,293.37,74.0,-175.06
1190,18.079278,t,222.0,304.0,275.0,110.0,166.0,131.0,161.0,195.0,9.42,-0.22,-2.68,21.56,13.06,1.25,0.12,0.78,0.59,0.59,3.05,-4.0,-1.6,292.94,74.12,-173.94
1191,18.099282,t,188.0,325.0,232.0,85.0,150.0,132.0,139.0,167.0,9.44,-0.4,-2.62,-4.87,10.38,44.44,0.12,0.77,0.59,0.59,1.37,-4.51,-1.01,292.25,74.25,-171.25
1192,18.119286,t,188.0,325.0,232.0,85.0,150.0,132.0,139.0,167.0,9.44,-0.4,-2.62,-4.87,10.38,44.44,0.12,0.77,0.6,0.6,0.43,-5.03,0.01,291.56,74.25,-167.06
1193,18.139291,t,179.0,376.0,170.0,69.0,151.0,138.0,134.0,131.0,9.42,-0.85,-2.58,-52.44,3.94,99.12,0.11,0.77,0.6,0.6,0.21,-5.3,-0.17,290.94,73.87,-161.69
1194,18.160295,t,179.0,376.0,170.0,69.0,151.0,138.0,134.0,131.0,9.42,-0.85,-2.58,-52.44,3.94,99.12,0.11,0.77,0.6,0.6,0.21,-5.3,-0.17,290.94,73.87,-161.69
1195,18.1793,t,200.0,376.0,127.0,54.0,196.0,194.0,154.0,111.0,9.32,-1.44,-2.68,-49.25,-21.19,111.69,0.1,0.76,0.59,0.59,-1.09,-5.07,-4.18,289.56,71.87,-151.62
1196,18.199304,t,211.0,377.0,133.0,54.0,235.0,222.0,146.0,125.0,9.21,-1.82,-2.8,10.0,-39.81,115.94,0.09,0.76,0.59,0.59,0.93,-1.38,-1.38,286.87,70.0,-146.87
1197,18.219308,t,211.0,377.0,133.0,54.0,235.0,222.0,146.0,125.0,9.21,-1.82,-2.8,23.44,-59.88,138.75,0.07,0.75,0.59,0.59,3.27,0.66,-0.86,283.25,67.62,-142.44
1198,18.239313,t,175.0,316.0,120.0,50.0,236.0,217.0,136.0,120.0,8.88,-2.71,-3.13,2.44,-57.94,140.81,0.05,0.75,0.58,0.58,1.37,0.58,0.58,279.81,64.94,-139.12
1199,18.259318,t,175.0,316.0,120.0,50.0,236.0,217.0,136.0,120.0,8.69,-3.1,-3.29,-0.69,-52.06,124.81,0.03,0.75,0.58,0.58,1.09,0.49,1.43,276.81,62.44,-136.69
1200,18.279322,t,130.0,204.0,120.0,50.0,224.0,188.0,125.0,114.0,8.48,-3.46,-3.48,-1.62,-63.44,122.62,0.02,0.75,0.57,0.57,1.19,-0.04,1.07,273.87,59.94,-135.06
1201,18.299334,t,132.0,172.0,116.0,50.0,231.0,174.0,129.0,111.0,8.25,-3.81,-3.67,-7.06,-65.56,124.94,0.0,0.75,0.56,0.56,0.89,-0.37,0.6,270.81,57.25,-133.81
1202,18.319338,t,132.0,172.0,116.0,50.0,231.0,174.0,129.0,111.0,8.25,-3.81,-3.67,-7.06,-65.56,124.94,0.0,0.75,0.56,0.56,0.89,-0.37,0.6,270.81,54.69,-133.0
1203,18.339343,t,122.0,151.0,95.0,51.0,246.0,200.0,147.0,105.0,7.74,-4.45,-4.04,-2.31,-73.75,120.5,0.03,-0.75,-0.54,-0.54,4.65,1.38,-1.28,264.56,52.13,-132.25
1204,18.359347,t,122.0,151.0,95.0,51.0,246.0,200.0,147.0,105.0,7.74,-4.73,-4.2,30.0,-60.75,87.94,0.05,-0.75,-0.53,-0.53,-0.68,0.23,-0.09,261.0,49.81,-131.56
1205,18.379357,t,135.0,175.0,104.0,52.0,297.0,238.0,154.0,117.0,7.26,-5.07,-4.19,81.12,-52.81,96.37,0.06,-0.74,-0.53,-0.53,0.4,0.5,0.96,256.56,47.81,-129.56
1206,18.399362,t,136.0,183.0,114.0,52.0,318.0,249.0,160.0,125.0,6.99,-5.45,-4.17,112.44,-70.0,91.0,0.09,-0.74,-0.53,-0.53,0.7,2.32,1.7,250.75,45.5,-127.44
1207,18.419367,t,136.0,183.0,114.0,52.0,318.0,249.0,160.0,125.0,6.99,-5.45,-4.17,112.44,-60.0,73.06,0.13,-0.74,-0.53,-0.53,0.41,4.49,2.72,236.56,43.5,-125.19
1208,18.439371,t,137.0,194.0,110.0,48.0,350.0,261.0,166.0,138.0,6.55,-6.1,-4.0,102.0,-49.38,65.25,0.14,-0.74,-0.53,-0.53,0.39,5.12,2.79,236.37,41.88,-123.19
1209,18.460375,t,137.0,194.0,110.0,48.0,350.0,261.0,166.0,138.0,6.55,-6.1,-3.92,82.5,-51.63,58.5,0.17,-0.74,-0.52,-0.52,-0.99,5.03,2.3,236.31,40.31,-121.69
1210,18.479379,t,142.0,186.0,108.0,49.0,364.0,266.0,163.0,152.0,6.16,-6.55,-3.89,58.38,-52.81,47.31,0.17,-0.74,-0.52,-0.52,-1.0,5.04,2.14,236.25,38.94,-120.69
1211,18.499385,t,143.0,171.0,100.0,50.0,369.0,274.0,158.0,171.0,6.01,-6.67,-3.92,28.0,-49.63,33.56,0.19,-0.74,-0.52,-0.52,-1.07,5.29,2.03,236.19,37.81,-120.37
1212,18.519389,t,143.0,171.0,100.0,50.0,369.0,274.0,158.0,171.0,6.01,-6.67,-3.92,28.0,-49.63,33.56,0.19,-0.74,-0.51,-0.51,-1.31,5.33,2.48,236.19,36.88,-120.62
1213,18.539394,t,138.0,160.0,98.0,53.0,346.0,272.0,153.0,183.0,5.79,-6.77,-4.08,-7.56,-35.75,15.81,0.2,-0.74,-0.5,-0.5,-0.92,4.66,2.32,236.25,36.19,-121.06
1214,18.559398,t,138.0,160.0,98.0,53.0,346.0,272.0,153.0,183.0,5.79,-6.77,-4.08,-7.56,-35.75,5.0,0.2,-0.75,-0.5,-0.5,-0.94,3.07,1.3,236.06,35.69,-121.56
1215,18.579402,t,124.0,162.0,101.0,54.0,341.0,278.0,166.0,191.0,5.72,-6.77,-4.17,10.13,-16.87,-9.38,0.2,-0.75,-0.5,-0.5,-0.81,2.2,0.56,235.81,35.69,-121.62
1216,18.599407,t,120.0,162.0,99.0,55.0,334.0,277.0,168.0,196.0,5.75,-6.74,-4.19,-2.81,-10.13,-21.62,0.2,-0.75,-0.5,-0.5,-1.46,2.22,0.06,235.31,35.88,-121.81
1217,18.619412,t,120.0,162.0,99.0,55.0,334.0,277.0,168.0,196.0,5.75,-6.74,-4.19,-2.81,-10.13,-21.62,0.19,-0.75,-0.5,-0.5,-1.33,1.91,-0.2,234.31,36.69,-122.56
1218,18.639416,t,120.0,182.0,90.0,49.0,331.0,292.0,141.0,173.0,5.93,-6.56,-4.22,6.56,6.19,-56.38,0.19,-0.75,-0.5,-0.5,-0.87,1.47,-1.77,233.75,37.19,-122.69
1219,18.659419,t,120.0,182.0,90.0,49.0,331.0,292.0,141.0,173.0,5.93,-6.56,-4.22,6.56,6.19,-71.5,0.18,-0.76,-0.5,-0.5,0.69,1.06,-0.96,231.69,39.13,-123.19
1220,18.679425,t,133.0,212.0,78.0,44.0,318.0,305.0,181.0,112.0,6.26,-6.25,-4.21,-29.69,-13.81,-76.5,0.17,-0.77,-0.5,-0.5,8.23,1.7,-4.34,231.0,39.69,-123.94
1221,18.699442,t,144.0,218.0,87.0,44.0,303.0,300.0,182.0,110.0,6.38,-5.99,-4.41,-68.56,-32.31,-77.12,0.16,-0.78,-0.5,-0.5,10.03,-5.94,-4.73,229.81,40.63,-126.31
1222,18.720447,t,144.0,218.0,87.0,44.0,303.0,300.0,182.0,110.0,6.38,-5.99,-4.41,-68.56,-32.31,-77.12,0.16,-0.78,-0.49,-0.49,6.1,-3.62,1.25,228.0,41.81,-128.75
1223,18.739451,t,164.0,225.0,115.0,44.0,247.0,246.0,168.0,104.0,6.6,-5.63,-4.55,21.44,1.0,-65.81,0.15,-0.79,-0.5,-0.5,2.6,2.45,0.75,227.25,42.31,-128.94
1224,18.759456,t,164.0,225.0,115.0,44.0,247.0,246.0,168.0,104.0,6.6,-5.63,-4.55,21.44,1.0,-91.62,0.14,-0.79,-0.5,-0.5,2.18,4.09,0.47,224.37,44.56,-129.62
1225,18.779461,t,176.0,243.0,127.0,45.0,243.0,251.0,166.0,113.0,6.99,-5.23,-4.44,-1.75,9.19,-111.87,0.13,-0.79,-0.51,-0.51,2.42,0.87,0.66,239.69,45.5,-130.31
1226,18.799465,t,176.0,250.0,136.0,44.0,242.0,251.0,166.0,113.0,6.99,-5.23,-4.44,-1.75,9.19,-111.87,0.13,-0.79,-0.51,-0.51,2.42,0.87,0.66,239.69,45.5,-130.31
1227,18.81947,t,186.0,254.0,142.0,44.0,234.0,253.0,158.0,115.0,7.22,-4.96,-4.4,5.69,19.75,-111.31,0.12,-0.8,-0.51,-0.51,2.66,-0.27,0.93,242.19,47.38,-131.56
1228,18.839474,t,182.0,255.0,141.0,43.0,224.0,242.0,154.0,114.0,7.42,-4.74,-4.21,1.37,31.31,-82.12,0.11,-0.8,-0.53,-0.53,1.64,1.1,2.01,246.12,50.81,-132.87
1229,18.859479,t,194.0,275.0,154.0,45.0,223.0,242.0,158.0,125.0,7.6,-4.53,-4.21,1.37,31.31,-82.12,0.1,-0.8,-0.53,-0.53,0.83,2.01,0.07,249.37,53.19,-134.06
1230,18.879483,t,206.0,297.0,166.0,45.0,222.0,242.0,160.0,147.0,7.93,-4.1,-4.04,-19.62,38.06,-73.81,0.08,-0.8,-0.54,-0.54,0.52,0.98,0.1,250.62,53.94,-134.56
1231,18.899488,t,218.0,312.0,170.0,50.0,222.0,244.0,160.0,154.0,8.09,-3.85,-3.97,-39.25,44.81,-71.62,0.07,-0.8,-0.54,-0.54,-0.71,0.4,0.85,255.12,56.38,-136.56
1232,18.919492,t,218.0,312.0,170.0,50.0,222.0,244.0,160.0,154.0,8.09,-3.85,-3.97,-39.25,44.81,-71.62,0.07,-0.8,-0.55,-0.55,-0.04,1.02,-0.43,258.0,57.75,-138.0
1233,18.940497,t,238.0,342.0,186.0,48.0,214.0,233.0,162.0,164.0,8.36,-3.37,-3.85,-40.13,35.25,-66.19,0.05,-0.8,-0.55,-0.55,0.08,1.16,-0.34,259.19,59.19,-139.69
1234,18.959501,t,238.0,342.0,186.0,48.0,214.0,233.0,162.0,164.0,8.36,-3.37,-3.85,-40.13,35.25,-66.19,0.05,-0.8,-0.55,-0.55,-1.43,0.8,-0.47,262.5,60.63,-141.56
1235,18.980506,t,253.0,373.0,207.0,51.0,211.0,208.0,163.0,164.0,8.6,-2.85,-3.74,-70.75,40.75,-59.5,0.03,-0.8,-0.56,-0.56,-1.59,0.58,-0.81,264.12,61.94,-143.75
1236,19.00051,t,253.0,373.0,207.0,51.0,211.0,208.0,163.0,164.0,8.6,-2.85,-3.74,-70.75,40.75,-59.5,0.03,-0.8,-0.56,-0.56,-1.59,0.58,-0.81,264.12,61.94,-143.75
1237,19.020515,t,258.0,372.0,217.0,52.0,209.0,197.0,161.0,167.0,8.7,-2.6,-3.7,-60.44,32.06,-55.06,0.01,-0.8,-0.56,0.56,-1.51,-0.79,0.09,270.25,64.12,-148.31
1238,19.03952,t,251.0,345.0,228.0,55.0,200.0,157.0,151.0,165.0,8.86,-2.12,-3.61,-64.37,28.0,-50.94,0.02,0.8,0.56,0.56,-1.36,-1.05,-0.43,273.19,65.12,-150.81
1239,19.059524,t,251.0,345.0,228.0,55.0,200.0,157.0,151.0,165.0,8.86,-2.12,-3.61,-64.37,28.0,-50.94,0.02,0.8,0.56,0.56,-1.36,-1.05,-0.43,275.75,66.12,-153.0
1240,19.079528,t,252.0,349.0,240.0,63.0,196.0,126.0,154.0,172.0,9.0,-1.7,-3.5,-48.13,30.87,-43.63,0.04,0.8,0.57,0.57,-1.84,-1.02,0.26,278.12,67.0,-155.06
1241,19.09954,t,225.0,296.0,234.0,70.0,181.0,112.0,148.0,176.0,9.05,-1.52,-3.43,-44.88,26.44,-39.81,0.05,0.8,0.57,0.57,-0.51,-0.45,-0.84,280.25,67.81,-157.12
1242,19.119543,t,225.0,296.0,234.0,70.0,181.0,112.0,148.0,176.0,9.05,-1.52,-3.43,-44.88,26.44,-39.81,0.05,0.8,0.57,0.57,-0.51,-0.45,-1.15,282.56,68.62,-159.25
1243,19.139548,t,230.0,311.0,252.0,83.0,190.0,112.0,155.0,190.0,9.1,-1.35,-3.37,-56.94,30.31,-32.88,0.06,0.79,0.57,0.57,-0.66,-1.26,-1.15,282.56,68.62,-159.25
1244,19.159553,t,225.0,307.0,253.0,88.0,178.0,105.0,151.0,191.0,9.15,-1.18,-3.3,-56.19,29.81,-29.12,0.07,0.79,0.57,0.57,-0.86,-2.27,-1.3,286.25,69.87,-162.31
1245,19.179558,t,217.0,319.0,271.0,94.0,176.0,93.0,159.0,194.0,9.22,-0.99,-3.18,-32.5,20.69,-10.56,0.09,0.79,0.58,0.58,-0.82,-2.67,-1.39,287.31,70.25,-163.0
1246,19.199564,t,219.0,330.0,276.0,98.0,175.0,94.0,159.0,196.0,9.24,-0.94,-3.13,-21.0,19.0,-7.12,0.09,0.78,0.58,0.58,-0.85,-2.48,-0.25,288.0,70.69,-163.5
1247,19.219567,t,219.0,330.0,276.0,98.0,175.0,94.0,159.0,196.0,9.24,-0.94,-3.13,-21.0,19.0,-7.12,0.09,0.78,0.58,0.58,-0.85,-2.48,-0.25,288.56,71.12,-163.87
1248,19.239571,t,210.0,323.0,272.0,96.0,172.0,101.0,159.0,190.0,9.29,-0.85,-3.01,0.69,19.0,-12.94,0.1,0.78,0.58,0.58,-0.14,-1.86,-1.48,288.69,71.5,-164.25
1249,19.259576,t,210.0,323.0,272.0,96.0,172.0,101.0,159.0,190.0,9.29,-0.85,-3.01,0.69,19.0,-12.94,0.1,0.78,0.58,0.58,-0.14,-1.86,-1.48,288.69,71.5,-164.25
1250,19.27958,t,208.0,304.0,262.0,89.0,157.0,110.0,153.0,178.0,9.33,-0.79,-2.88,37.31,20.87,-18.56,0.09,0.78,0.59,0.59,1.58,-0.13,-0.99,287.81,72.44,-164.5
1251,19.299585,t,214.0,314.0,268.0,92.0,160.0,119.0,159.0,178.0,9.36,-0.77,-2.8,21.0,21.94,-13.06,0.09,0.78,0.59,0.59,2.85,-0.16,-0.94,287.5,72.94,-164.5
1252,19.319589,t,214.0,314.0,268.0,92.0,160.0,119.0,159.0,178.0,9.36,-0.77,-2.8,21.0,21.94,-13.06,0.09,0.78,0.59,0.59,2.85,-0.16,-0.94,287.5,72.94,-164.5
1253,19.339594,t,204.0,301.0,258.0,96.0,154.0,119.0,158.0,176.0,9.4,-0.76,-2.66,-1.94,21.12,3.69,0.09,0.77,0.6,0.6,3.78,-2.15,-0.63,287.44,73.75,-163.62
1254,19.359598,t,204.0,301.0,258.0,96.0,154.0,119.0,158.0,176.0,9.4,-0.76,-2.66,-1.94,21.12,3.69,0.09,0.77,0.6,0.6,3.78,-2.15,-0.63,287.44,73.75,-163.62
1255,19.379603,t,177.0,293.0,225.0,88.0,135.0,121.0,137.0,167.0,9.43,-0.82,-2.55,-4.81,8.94,27.62,0.09,0.77,0.6,0.6,2.25,-3.36,-0.96,287.19,74.06,-161.06
1256,19.399607,t,173.0,317.0,214.0,78.0,135.0,126.0,119.0,153.0,9.42,-0.93,-2.52,-3.19,10.38,48.44,0.09,0.77,0.6,0.6,0.46,-3.76,-0.46,286.44,73.94,-158.12
1257,19.419612,t,173.0,317.0,214.0,78.0,135.0,126.0,119.0,153.0,9.42,-0.93,-2.52,-3.19,10.38,48.44,0.09,0.77,0.6,0.6,0.46,-3.76,-0.43,285.56,73.5,-154.12
1258,19.439617,t,168.0,347.0,178.0,70.0,139.0,127.0,114.0,140.0,9.4,-1.21,-2.5,-60.5,-5.87,95.19,0.08,0.76,0.6,0.6,-0.01,-5.03,-1.62,285.06,72.62,-150.06
1259,19.459621,t,172.0,405.0,154.0,67.0,150.0,142.0,124.0,122.0,9.38,-1.33,-2.51,-60.5,-5.87,95.19,0.08,0.76,0.6,0.6,-0.01,-5.03,-1.62,285.06,72.62,-150.06
1260,19.479625,t,196.0,366.0,133.0,54.0,207.0,200.0,158.0,109.0,9.24,-1.87,-2.67,-11.94,-32.5,101.69,0.07,0.76,0.6,0.6,-0.55,-4.74,-3.33,283.0,69.69,-143.25
1261,19.49963,t,196.0,366.0,133.0,54.0,207.0,200.0,158.0,109.0,9.24,-1.87,-2.67,27.5,-50.81,116.44,0.05,0.76,0.59,0.59,1.88,-0.58,-0.93,280.0,67.62,-139.87
1262,19.519635,t,198.0,367.0,122.0,54.0,221.0,219.0,149.0,113.0,9.06,-2.4,-2.85,27.5,-50.81,116.44,0.05,0.76,0.59,0.59,3.23,0.96,-0.43,276.31,65.0,-136.75
1263,19.539639,t,160.0,296.0,116.0,50.0,215.0,213.0,134.0,108.0,8.79,-3.04,-3.09,15.0,-48.56,122.44,0.01,0.75,0.58,0.58,1.05,0.87,0.4,272.87,62.5,-134.19
1264,19.559644,t,160.0,296.0,116.0,50.0,215.0,213.0,134.0,108.0,8.79,-3.04,-3.09,15.0,-48.56,122.44,0.01,0.75,0.58,0.58,1.05,0.87,0.4,272.87,62.5,-134.19
1265,19.579648,t,150.0,246.0,118.0,51.0,211.0,199.0,130.0,108.0,8.51,-3.57,-3.28,1.75,-56.25,111.94,0.01,-0.75,-0.57,-0.57,0.66,0.62,1.64,267.0,57.94,-131.44
1266,19.599653,t,127.0,199.0,118.0,50.0,211.0,180.0,118.0,100.0,8.31,-3.89,-3.44,1.75,-56.25,111.94,0.01,-0.75,-0.56,-0.56,0.74,0.51,1.38,264.37,55.56,-130.69
1267,19.619657,t,130.0,172.0,114.0,51.0,221.0,170.0,119.0,102.0,8.08,-4.2,-3.61,-10.88,-55.13,108.37,0.03,-0.75,-0.55,-0.55,0.59,0.85,0.71,261.87,53.31,-130.31
1268,19.639662,t,118.0,149.0,101.0,52.0,226.0,194.0,132.0,102.0,7.65,-4.69,-3.94,2.75,-58.06,86.25,0.05,-0.75,-0.54,-0.54,-0.35,0.34,-0.16,259.31,51.25,-130.0
1269,19.659667,t,118.0,149.0,101.0,52.0,226.0,194.0,132.0,102.0,7.65,-4.69,-3.94,2.75,-58.06,86.25,0.05,-0.75,-0.54,-0.54,-0.35,0.34,-0.16,259.31,51.25,-130.0
1270,19.679671,t,134.0,173.0,101.0,52.0,278.0,226.0,145.0,115.0,7.22,-5.19,-4.1,87.81,-52.06,71.19,0.08,-0.75,-0.53,-0.53,-0.78,0.21,0.23,251.87,47.44,-128.31
1271,19.699675,t,134.0,173.0,101.0,52.0,278.0,226.0,145.0,115.0,7.22,-5.19,-4.1,87.81,-52.06,71.19,0.08,-0.75,-0.53,-0.53,-0.78,0.21,0.23,251.87,47.44,-128.31
1272,19.71968,t,140.0,188.0,109.0,53.0,307.0,247.0,150.0,120.0,7.01,-5.53,-4.03,122.37,-57.5,70.5,0.14,-0.75,-0.53,-0.53,-0.01,2.81,1.73,232.62,44.0,-123.62
1273,19.739684,t,136.0,198.0,116.0,47.0,342.0,261.0,162.0,127.0,6.62,-6.17,-3.75,126.0,-50.81,58.31,0.16,-0.75,-0.53,-0.53,-0.06,5.22,2.27,232.06,42.5,-121.25
1274,19.759689,t,136.0,198.0,116.0,47.0,342.0,261.0,162.0,127.0,6.62,-6.17,-3.75,126.0,-50.81,58.31,0.16,-0.75,-0.53,-0.53,-0.06,5.22,2.27,232.06,42.5,-121.25
1275,19.7797,t,122.0,177.0,101.0,42.0,323.0,246.0,148.0,135.0,6.25,-6.59,-3.68,39.56,-58.88,48.38,0.2,-0.75,-0.52,-0.52,-0.19,5.06,1.4,231.62,39.63,-119.19
1276,19.799704,t,122.0,177.0,101.0,42.0,323.0,246.0,148.0,135.0,6.25,-6.59,-3.68,39.56,-58.88,48.38,0.2,-0.75,-0.52,-0.52,-0.19,5.06,1.4,231.62,39.63,-119.19
1277,19.819708,t,138.0,196.0,105.0,48.0,358.0,270.0,159.0,152.0,6.08,-6.69,-3.79,0.06,-58.25,29.44,0.21,-0.75,-0.5,-0.5,-0.47,3.52,1.52,232.06,37.25,-120.31
1278,19.839713,t,138.0,177.0,96.0,51.0,352.0,279.0,156.0,178.0,5.82,-6.75,-4.08,-16.19,-44.63,20.87,0.21,-0.76,-0.5,-0.5,-0.33,3.31,2.26,232.25,36.38,-121.12
1279,19.859718,t,138.0,177.0,96.0,51.0,352.0,279.0,156.0,178.0,5.82,-6.75,-4.08,-16.19,-44.63,20.87,0.21,-0.76,-0.5,-0.5,-0.33,3.31,2.26,232.25,36.38,-121.12
1280,19.879722,t,133.0,158.0,86.0,53.0,338.0,276.0,152.0,180.0,5.69,-6.76,-4.22,5.62,-29.56,-5.44,0.22,-0.76,-0.49,-0.49,-0.44,1.99,0.89,231.87,35.5,-121.94
1281,19.899727,t,133.0,158.0,86.0,53.0,338.0,276.0,152.0,180.0,5.69,-6.76,-4.22,5.62,-29.56,-5.44,0.22,-0.76,-0.49,-0.49,-0.44,1.99,0.89,231.87,35.5,-121.94
1282,19.919731,t,138.0,167.0,87.0,53.0,334.0,279.0,157.0,189.0,5.69,-6.74,-4.28,10.31,-19.56,-32.63,0.22,-0.77,-0.48,-0.48,-1.23,2.61,1.78,230.37,35.75,-122.56
1283,19.939736,t,132.0,170.0,87.0,51.0,318.0,272.0,158.0,194.0,5.73,-6.7,-4.28,10.31,-19.56,-32.63,0.22,-0.77,-0.48,-0.48,-1.23,2.61,1.78,230.37,35.75,-122.56
1284,19.95974,t,124.0,179.0,88.0,51.0,318.0,274.0,149.0,194.0,5.81,-6.62,-4.29,0.88,-10.19,-46.31,0.22,-0.77,-0.48,-0.48,-0.42,2.12,0.75,229.37,36.31,-122.94
1285,19.979745,t,122.0,196.0,85.0,47.0,326.0,290.0,153.0,155.0,6.08,-6.33,-4.36,-30.19,8.38,-56.25,0.2,-0.78,-0.49,-0.49,0.8,-1.32,-1.82,227.62,38.31,-124.5
1286,19.999749,t,122.0,196.0,85.0,47.0,326.0,290.0,153.0,155.0,6.08,-6.33,-4.36,-30.19,8.38,-56.25,0.2,-0.78,-0.49,-0.49,0.8,-1.32,-1.82,227.62,38.31,-124.5
1287,20.019754,t,129.0,214.0,85.0,47.0,338.0,312.0,180.0,122.0,6.18,-6.17,-4.43,-29.5,-16.44,-57.88,0.19,-0.78,-0.49,-0.49,4.44,-0.52,-3.98,226.69,39.13,-125.69
1288,20.039758,t,139.0,218.0,90.0,44.0,309.0,299.0,181.0,110.0,6.28,-5.98,-4.56,-36.94,-26.31,-65.94,0.18,-0.8,-0.48,-0.48,8.17,-2.83,2.95,224.19,40.31,-128.69
1289,20.059762,t,146.0,209.0,102.0,42.0,262.0,255.0,165.0,103.0,6.34,-5.83,-4.67,0.44,-34.81,-54.13,0.18,-0.8,-0.48,-0.48,8.17,-2.83,2.95,224.19,40.31,-128.69
1290,20.079767,t,170.0,220.0,123.0,44.0,253.0,250.0,169.0,104.0,6.47,-5.76,-4.59,31.81,17.81,-63.13,0.18,-0.8,-0.49,-0.49,1.46,4.09,1.29,221.06,42.88,-129.0
1291,20.099772,t,175.0,229.0,132.0,44.0,245.0,254.0,174.0,106.0,6.67,-5.58,-4.52,11.44,14.94,-97.44,0.17,-0.8,-0.49,-0.49,1.46,4.09,1.29,221.06,42.88,-129.0
1292,20.119783,t,176.0,240.0,137.0,44.0,240.0,257.0,170.0,111.0,7.12,-5.05,-4.46,-0.94,24.12,-96.31,0.15,-0.81,-0.5,-0.5,3.22,-1.26,0.36,236.62,46.56,-131.44
1293,20.139787,t,182.0,241.0,144.0,45.0,231.0,257.0,170.0,114.0,7.3,-4.85,-4.39,3.37,21.81,-79.31,0.14,-0.81,-0.51,-0.51,1.12,0.67,0.89,238.56,48.06,-132.19
1294,20.159792,t,194.0,246.0,142.0,45.0,220.0,249.0,158.0,114.0,7.3,-4.85,-4.39,3.37,21.81,-79.31,0.14,-0.81,-0.51,-0.51,1.12,0.67,0.89,238.56,48.06,-132.19
1295,20.179796,t,202.0,253.0,164.0,43.0,204.0,240.0,160.0,122.0,7.6,-4.46,-4.29,-0.69,28.69,-73.0,0.13,-0.81,-0.51,-0.51,1.33,2.1,1.0,242.37,50.81,-133.81
1296,20.199801,t,202.0,253.0,164.0,43.0,204.0,240.0,160.0,122.0,7.6,-4.46,-4.29,-0.69,28.69,-73.0,0.13,-0.81,-0.51,-0.51,1.33,2.1,1.0,242.37,50.81,-133.81
1297,20.219805,t,210.0,270.0,176.0,46.0,206.0,247.0,164.0,134.0,7.76,-4.26,-4.21,-15.69,35.63,-72.06,0.11,-0.81,-0.52,-0.52,1.11,1.27,0.28,244.62,53.75,-135.94
1298,20.23981,t,219.0,284.0,175.0,50.0,206.0,248.0,164.0,143.0,7.91,-4.02,-4.16,-36.81,41.13,-61.31,0.09,-0.81,-0.53,-0.53,0.64,0.16,0.65,250.31,55.19,-137.25
1299,20.259815,t,216.0,281.0,178.0,52.0,201.0,242.0,159.0,149.0,8.05,-3.79,-4.11,-40.94,41.13,-61.31,0.09,-0.81,-0.53,-0.53,0.64,0.16,0.65,250.31,55.19,-137.25
1300,20.279819,t,226.0,292.0,191.0,54.0,198.0,234.0,163.0,159.0,8.18,-3.58,-4.03,-27.37,42.56,-60.81,0.07,-0.81,-0.54,-0.54,0.61,1.43,0.6,252.94,56.63,-138.37
1301,20.299823,t,224.0,294.0,195.0,51.0,186.0,218.0,161.0,162.0,8.32,-3.35,-3.94,-37.75,46.69,-63.31,0.06,-0.81,-0.55,-0.55,-0.08,2.04,-0.17,255.44,58.13,-139.5
1302,20.319828,t,232.0,301.0,206.0,52.0,182.0,205.0,161.0,170.0,8.46,-3.1,-3.86,-61.0,46.75,-61.31,0.05,-0.81,-0.55,-0.55,-0.76,2.07,-0.52,258.69,59.56,-141.19
1303,20.339832,t,232.0,306.0,212.0,52.0,178.0,195.0,158.0,178.0,8.57,-2.83,-3.8,-73.25,44.5,-58.31,0.04,-0.81,-0.55,-0.55,-0.91,1.13,-0.8,262.31,61.0,-143.25
1304,20.359837,t,222.0,302.0,206.0,50.0,173.0,176.0,151.0,174.0,8.68,-2.56,-3.76,-81.56,39.44,-57.88,0.01,-0.8,-0.56,-0.56,-1.77,-0.61,-0.27,266.0,62.31,-145.69
1305,20.379847,t,242.0,313.0,232.0,55.0,179.0,166.0,157.0,182.0,8.85,-2.04,-3.67,-62.06,34.25,-53.81,0.01,0.8,0.56,0.56,-1.77,0.11,-0.68,272.75,64.56,-150.87
1306,20.399852,t,243.0,304.0,241.0,58.0,177.0,145.0,148.0,184.0,8.85,-2.04,-3.67,-62.06,34.25,-53.81,0.01,0.8,0.56,0.56,-1.77,0.11,-0.68,272.75,64.56,-150.87
1307,20.419856,t,244.0,308.0,248.0,72.0,182.0,134.0,146.0,195.0,8.93,-1.8,-3.59,-88.5,27.19,-42.94,0.05,0.8,0.56,0.56,-1.54,-1.69,-0.23,279.37,66.44,-156.56
1308,20.439861,t,246.0,301.0,247.0,77.0,182.0,130.0,149.0,201.0,8.99,-1.55,-3.59,-88.5,27.19,-42.94,0.05,0.8,0.56,0.56,-1.57,-2.47,-0.46,282.81,67.31,-159.44
1309,20.459865,t,240.0,297.0,244.0,84.0,177.0,119.0,147.0,202.0,9.05,-1.32,-3.53,-88.62,33.75,-37.5,0.07,0.8,0.56,0.56,-1.57,-2.47,-0.46,282.81,67.31,-159.44
1310,20.47987,t,243.0,307.0,256.0,84.0,173.0,115.0,147.0,204.0,9.1,-1.02,-3.38,-29.75,27.31,-21.31,0.09,0.79,0.57,0.57,-1.13,-2.43,-0.09,287.06,68.87,-163.06
1311,20.499874,t,227.0,298.0,257.0,88.0,167.0,105.0,147.0,206.0,9.14,-1.02,-3.38,-29.75,27.31,-21.31,0.09,0.79,0.57,0.57,-1.13,-2.43,-0.09,287.06,68.87,-163.06
1312,20.519879,t,225.0,308.0,264.0,95.0,166.0,106.0,154.0,200.0,9.17,-0.88,-3.25,-21.06,18.5,-12.06,0.1,0.79,0.57,0.57,-1.11,-1.74,-0.47,288.94,69.81,-164.75
1313,20.539883,t,219.0,311.0,267.0,97.0,166.0,103.0,154.0,198.0,9.2,-0.88,-3.25,-21.06,18.5,-12.06,0.1,0.79,0.57,0.57,-0.73,-1.95,-0.16,289.87,70.19,-165.56
1314,20.559888,t,220.0,311.0,264.0,99.0,169.0,100.0,157.0,204.0,9.22,-0.82,-3.21,-22.94,14.69,-11.69,0.1,0.79,0.57,0.57,-0.73,-1.95,-0.16,289.87,70.19,-165.56
1315,20.579893,t,221.0,312.0,260.0,100.0,170.0,97.0,156.0,208.0,9.24,-0.76,-3.12,1.44,16.0,-16.06,0.11,0.78,0.57,0.57,-1.18,-2.57,-1.0,291.25,70.87,-167.25
1316,20.599897,t,219.0,303.0,265.0,99.0,170.0,98.0,156.0,212.0,9.26,-0.7,-3.12,1.44,16.0,-16.06,0.11,0.78,0.57,0.57,-1.18,-2.57,-1.0,291.25,70.87,-167.25
1317,20.619902,t,224.0,300.0,272.0,100.0,168.0,105.0,153.0,208.0,9.28,-0.67,-3.08,34.75,13.0,-13.13,0.1,0.78,0.58,0.58,0.42,-1.45,-1.25,290.37,71.5,-167.5
1318,20.639906,t,222.0,290.0,271.0,94.0,162.0,111.0,152.0,202.0,9.3,-0.66,-3.03,34.75,13.0,-13.13,0.1,0.78,0.58,0.58,0.19,0.16,-0.62,289.81,72.06,-167.69
1319,20.659911,t,220.0,294.0,274.0,95.0,162.0,122.0,158.0,197.0,9.32,-0.65,-2.97,27.12,16.62,-14.06,0.1,0.78,0.58,0.58,0.19,0.16,-0.62,289.81,72.06,-167.69
1320,20.679915,t,219.0,300.0,272.0,98.0,160.0,124.0,158.0,191.0,9.34,-0.62,-2.91,-5.5,14.63,-15.94,0.11,0.78,0.59,0.59,2.05,-0.86,-0.3,290.25,72.62,-168.81
1321,20.69992,t,214.0,296.0,267.0,99.0,154.0,124.0,158.0,188.0,9.36,-0.56,-2.86,-5.5,14.63,-15.94,0.11,0.78,0.59,0.59,2.05,-0.86,-0.3,290.25,72.62,-168.81
1322,20.719924,t,216.0,300.0,270.0,101.0,153.0,126.0,158.0,188.0,9.37,-0.52,-2.81,5.25,5.12,-2.5,0.1,0.78,0.59,0.59,4.1,-3.27,-1.22,289.87,73.19,-168.94
1323,20.739929,t,213.0,293.0,268.0,102.0,149.0,127.0,150.0,184.0,9.38,-0.52,-2.78,20.94,5.12,-2.5,0.1,0.78,0.59,0.59,4.1,-3.27,-1.38,289.12,73.25,-167.06
1324,20.759933,t,207.0,297.0,260.0,98.0,147.0,131.0,146.0,182.0,9.38,-0.57,-2.77,11.19,5.94,19.69,0.1,0.78,0.59,0.59,4.88,-4.87,-1.38,289.12,73.25,-167.06
1325,20.779938,t,191.0,287.0,230.0,89.0,139.0,127.0,141.0,175.0,9.39,-0.69,-2.72,-12.0,15.44,51.63,0.1,0.78,0.59,0.59,2.89,-4.62,-1.02,288.44,73.31,-163.94
1326,20.799942,t,182.0,307.0,206.0,76.0,134.0,124.0,129.0,153.0,9.39,-0.86,-2.68,-24.44,16.44,62.38,0.09,0.77,0.6,0.6,2.19,-4.77,-0.48,287.87,73.19,-160.0
1327,20.819947,t,179.0,309.0,187.0,69.0,134.0,125.0,123.0,142.0,9.37,-1.08,-2.65,-36.0,4.56,94.56,0.09,0.76,0.6,0.6,-0.63,-5.0,-1.16,286.25,71.75,-151.0
1328,20.839951,t,163.0,350.0,143.0,63.0,145.0,136.0,136.0,115.0,9.34,-1.34,-2.66,-35.13,-1.06,94.56,0.09,0.76,0.6,0.6,-0.63,-5.0,-3.81,285.31,70.37,-147.62
1329,20.859955,t,179.0,397.0,131.0,58.0,170.0,170.0,153.0,108.0,9.28,-1.62,-2.72,-50.69,-16.62,101.75,0.08,0.76,0.59,0.59,-0.26,-4.19,-3.81,285.31,70.37,-147.62
1330,20.87996,t,191.0,406.0,127.0,55.0,212.0,212.0,157.0,109.0,9.18,-1.91,-2.83,40.81,-36.38,101.12,0.07,0.76,0.59,0.59,0.63,-2.37,-1.7,282.56,68.69,-143.94
1331,20.899965,t,196.0,392.0,125.0,52.0,226.0,230.0,150.0,119.0,9.07,-2.29,-2.92,21.12,-49.06,123.44,0.04,0.76,0.59,0.59,0.61,-0.83,-1.21,278.12,66.56,-140.19
1332,20.919969,t,200.0,358.0,115.0,52.0,236.0,233.0,150.0,126.0,8.8,-2.9,-3.19,-20.31,-60.88,139.0,0.01,0.76,0.57,0.57,2.88,-0.61,0.27,272.75,61.31,-135.69
1333,20.939974,t,189.0,313.0,107.0,50.0,234.0,227.0,146.0,123.0,8.7,-3.09,-3.28,-26.81,-52.19,139.0,0.01,0.76,0.57,0.57,2.88,-0.61,0.27,269.37,58.75,-133.75
1334,20.959978,t,162.0,254.0,112.0,52.0,233.0,217.0,134.0,110.0,8.5,-3.46,-3.43,-0.81,-50.0,126.94,0.0,-0.76,-0.57,-0.57,1.29,-0.75,-0.09,269.37,58.75,-133.75
1335,20.979983,t,137.0,213.0,115.0,52.0,229.0,197.0,130.0,102.0,8.13,-4.07,-3.65,36.31,-63.63,129.87,0.04,-0.75,-0.55,-0.55,1.93,1.49,2.44,261.25,53.44,-130.25
1336,20.998987,t,129.0,169.0,106.0,50.0,230.0,177.0,132.0,99.0,8.0,-4.27,-3.71,28.62,-58.56,128.87,0.04,-0.75,-0.55,-0.55,1.93,1.49,2.44,261.25,53.44,-130.25
1337,21.018992,t,120.0,152.0,94.0,50.0,239.0,182.0,146.0,101.0,7.6,-4.76,-3.95,-21.94,-64.19,121.12,0.06,-0.75,-0.54,-0.54,0.42,-0.49,0.53,258.25,50.81,-129.69
1338,21.038996,t,121.0,148.0,89.0,50.0,245.0,191.0,145.0,99.0,7.46,-4.86,-4.1,-27.69,-97.87,88.56,0.07,-0.75,-0.53,-0.53,5.46,1.54,-1.38,252.81,46.44,-129.87
1339,21.059001,t,129.0,157.0,97.0,51.0,281.0,218.0,157.0,116.0,7.22,-5.05,-4.29,21.44,-45.88,92.0,0.08,-0.75,-0.52,-0.52,-0.11,-1.67,0.25,252.81,46.44,-129.87
1340,21.080005,t,139.0,181.0,102.0,52.0,313.0,237.0,160.0,130.0,6.82,-5.52,-4.37,71.44,-69.87,104.62,0.1,-0.75,-0.51,-0.51,1.3,0.93,1.96,236.5,41.88,-126.31
1341,21.10001,t,141.0,190.0,98.0,50.0,335.0,248.0,170.0,126.0,6.68,-5.7,-4.35,93.75,-56.0,94.31,0.12,-0.75,-0.51,-0.51,1.3,0.93,1.96,236.5,41.88,-126.31
1342,21.119014,t,144.0,196.0,105.0,50.0,365.0,259.0,162.0,132.0,6.3,-6.23,-4.18,124.87,-43.81,80.75,0.15,-0.74,-0.52,-0.52,1.28,4.11,1.98,236.62,38.31,-121.25
1343,21.140019,t,142.0,190.0,106.0,49.0,371.0,258.0,168.0,136.0,6.19,-6.4,-4.08,129.0,-43.88,76.44,0.18,-0.74,-0.52,-0.52,1.28,4.11,1.98,236.62,38.31,-121.25
1344,21.160024,t,148.0,197.0,104.0,51.0,383.0,266.0,170.0,152.0,5.86,-6.86,-3.82,106.56,-45.63,69.25,0.2,-0.73,-0.52,-0.52,1.21,4.95,1.35,236.56,36.69,-119.06
1345,21.179028,t,156.0,191.0,109.0,51.0,395.0,271.0,173.0,170.0,5.64,-7.11,-3.7,79.0,-43.06,68.37,0.22,-0.73,-0.51,-0.51,-1.88,6.19,2.01,237.12,33.56,-116.5
1346,21.199032,t,161.0,188.0,104.0,52.0,406.0,276.0,178.0,182.0,5.53,-7.21,-3.66,46.25,-45.5,61.75,0.24,-0.73,-0.51,-0.51,-1.88,6.19,2.01,237.12,33.56,-116.5
1347,21.220037,t,167.0,185.0,102.0,55.0,423.0,285.0,178.0,185.0,5.21,-7.44,-3.68,20.06,-52.25,57.25,0.25,-0.73,-0.5,-0.49,-1.35,5.04,1.45,237.94,30.75,-116.25
1348,21.239041,t,158.0,174.0,99.0,58.0,408.0,287.0,161.0,191.0,5.11,-7.5,-3.7,14.13,-48.13,51.5,0.26,-0.73,-0.49,-0.49,-1.35,5.04,1.45,237.94,30.75,-116.25
1349,21.259046,t,163.0,181.0,101.0,63.0,426.0,308.0,167.0,196.0,4.83,-7.64,-3.78,7.0,-48.94,43.56,0.26,-0.73,-0.49,-0.49,-0.91,4.58,1.15,238.25,29.5,-116.31
1350,21.27905,t,147.0,184.0,97.0,66.0,454.0,325.0,168.0,201.0,4.67,-7.7,-3.85,3.56,-46.69,32.94,0.27,-0.73,-0.47,-0.47,-1.75,1.36,1.89,238.19,27.75,-116.5
1351,21.299055,t,115.0,168.0,100.0,69.0,453.0,335.0,160.0,213.0,4.57,-7.76,-3.87,20.75,-37.38,13.44,0.28,-0.73,-0.47,-0.47,-1.75,1.36,1.89,238.19,27.75,-116.5
1352,21.319059,t,104.0,145.0,107.0,72.0,447.0,342.0,154.0,224.0,4.51,-7.79,-3.87,21.44,-34.94,0.0,0.28,-0.73,-0.47,-0.47,-1.36,1.77,0.12,237.69,27.44,-116.37
1353,21.339064,t,94.0,140.0,104.0,74.0,433.0,330.0,151.0,222.0,4.5,-7.8,-3.87,13.31,-24.19,-10.75,0.29,-0.73,-0.47,-0.47,-1.74,1.68,0.13,237.12,27.31,-116.37
1354,21.359068,t,87.0,152.0,105.0,78.0,439.0,334.0,149.0,218.0,4.54,-7.78,-3.85,16.94,-12.75,-27.25,0.29,-0.74,-0.47,-0.47,-1.72,1.12,-0.58,236.44,27.56,-116.25
1355,21.379073,t,86.0,158.0,105.0,79.0,410.0,326.0,148.0,210.0,4.61,-7.74,-3.84,14.63,-20.31,-39.19,0.29,-0.74,-0.47,-0.47,-0.71,0.47,1.05,234.19,28.75,-116.31
1356,21.399078,t,83.0,163.0,106.0,78.0,387.0,310.0,152.0,203.0,4.71,-7.7,-3.81,19.94,-15.44,-47.13,0.29,-0.74,-0.47,-0.47,-0.86,0.47,1.05,234.19,28.75,-116.31
1357,21.419082,t,86.0,166.0,105.0,78.0,396.0,310.0,156.0,197.0,4.85,-7.62,-3.81,5.56,-8.06,-58.88,0.29,-0.75,-0.47,-0.47,-0.98,-9.82,-2.29,231.62,30.75,-116.87
1358,21.439087,t,88.0,182.0,96.0,77.0,450.0,337.0,134.0,194.0,5.02,-7.5,-3.81,-8.38,5.56,-64.31,0.28,-0.75,-0.48,-0.48,1.42,-9.82,-2.29,231.62,30.75,-116.87
1359,21.459091,t,85.0,200.0,100.0,80.0,476.0,354.0,127.0,168.0,5.15,-7.38,-3.89,-39.5,5.81,-38.63,0.27,-0.75,-0.48,-0.48,2.08,-17.55,-5.91,231.12,31.62,-117.75
1360,21.480097,t,94.0,188.0,108.0,76.0,372.0,339.0,138.0,130.0,5.18,-7.38,-3.83,78.56,-33.06,-25.75,0.27,-0.76,-0.48,-0.48,-0.81,12.03,1.74,228.37,32.13,-115.87
1361,21.500107,t,107.0,199.0,109.0,66.0,387.0,336.0,175.0,114.0,5.21,-7.46,-3.62,94.56,-23.5,-33.5,0.29,-0.75,-0.48,-0.48,-0.81,12.03,1.74,228.37,32.13,-115.87
1362,21.520112,t,110.0,220.0,109.0,61.0,395.0,338.0,194.0,106.0,5.39,-7.29,-3.71,-72.37,-5.62,-83.25,0.28,-0.76,-0.48,-0.48,0.91,-3.41,1.52,225.75,34.81,-118.81
1363,21.539116,t,116.0,218.0,92.0,54.0,362.0,313.0,179.0,97.0,5.6,-7.05,-3.87,-38.19,-0.37,-86.5,0.26,-0.77,-0.48,-0.48,0.56,0.7,1.52,225.75,34.81,-118.81
1364,21.559121,t,122.0,222.0,98.0,53.0,344.0,289.0,160.0,99.0,5.79,-6.86,-3.92,-24.19,-3.44,-78.5,0.25,-0.77,-0.49,-0.49,3.57,1.77,0.66,224.37,36.19,-119.75
1365,21.579125,t,120.0,224.0,102.0,49.0,317.0,270.0,150.0,98.0,5.97,-6.65,-4.01,-32.75,-8.5,-83.87,0.24,-0.78,-0.49,-0.49,5.48,2.32,-0.08,221.62,39.06,-122.37
1366,21.59913,t,128.0,238.0,104.0,47.0,278.0,258.0,155.0,100.0,6.17,-6.42,-4.08,-42.13,15.81,-84.75,0.23,-0.79,-0.49,-0.49,3.73,2.32,-0.08,221.62,39.06,-122.37
1367,21.619134,t,138.0,246.0,110.0,45.0,267.0,247.0,156.0,101.0,6.4,-6.17,-4.12,-47.94,31.31,-85.56,0.22,-0.79,-0.49,-0.49,2.22,1.94,1.3,220.62,40.75,-123.69
1368,21.639139,t,144.0,242.0,114.0,43.0,244.0,239.0,144.0,97.0,6.63,-5.92,-4.13,-38.38,36.19,-83.0,0.2,-0.79,-0.5,-0.5,2.07,3.22,0.92,219.69,42.5,-124.87
1369,21.659143,t,158.0,252.0,125.0,45.0,244.0,244.0,142.0,102.0,6.84,-5.68,-4.12,-39.94,36.81,-83.44,0.19,-0.8,-0.5,-0.5,3.67,2.5,-0.13,218.69,44.25,-125.94
1370,21.680149,t,166.0,254.0,134.0,44.0,236.0,245.0,141.0,112.0,7.06,-5.39,-4.13,-57.88,37.94,-88.44,0.17,-0.8,-0.51,-0.51,3.56,-0.36,0.63,233.06,47.94,-129.0
1371,21.700152,t,176.0,265.0,138.0,45.0,228.0,246.0,150.0,118.0,7.28,-5.09,-4.13,-59.19,46.56,-84.19,0.15,-0.8,-0.52,-0.52,0.62,-0.39,0.16,237.06,47.94,-129.0
1372,21.719157,t,182.0,274.0,144.0,45.0,216.0,244.0,154.0,125.0,7.48,-4.83,-4.1,-52.94,48.25,-70.69,0.14,-0.8,-0.52,-0.52,-0.69,-0.31,0.42,240.81,49.69,-130.31
1373,21.740161,t,182.0,274.0,144.0,45.0,216.0,244.0,154.0,125.0,7.48,-4.83,-4.1,-52.94,48.25,-70.69,0.14,-0.8,-0.52,-0.52,-0.69,-0.31,0.42,240.81,49.69,-130.31
1374,21.760166,t,210.0,290.0,173.0,45.0,207.0,238.0,172.0,143.0,7.83,-4.37,-3.95,-23.87,50.0,-80.19,0.11,-0.8,-0.53,-0.53,1.39,2.38,-1.12,246.5,53.0,-132.06
1375,21.78017,t,195.0,283.0,162.0,40.0,186.0,218.0,160.0,143.0,8.03,-4.1,-3.84,-25.81,51.38,-87.12,0.1,-0.8,-0.54,-0.54,-1.73,0.06,-2.38,252.19,56.63,-134.62
1376,21.800175,t,214.0,326.0,191.0,49.0,200.0,235.0,178.0,160.0,8.19,-3.83,-3.79,-12.0,21.0,-88.75,0.09,-0.8,-0.55,-0.55,-1.38,0.9,-2.47,252.19,56.63,-134.62
1377,21.820179,t,222.0,360.0,199.0,52.0,202.0,238.0,179.0,171.0,8.32,-3.56,-3.76,-10.06,11.06,-93.5,0.08,-0.8,-0.55,-0.55,-0.8,1.05,-0.74,254.37,58.06,-136.56
1378,21.840184,t,206.0,345.0,191.0,49.0,191.0,224.0,168.0,162.0,8.44,-3.26,-3.75,-20.94,9.81,-95.31,0.06,-0.8,-0.55,-0.55,-0.52,-0.19,0.69,256.87,59.5,-139.0
1379,21.860189,t,222.0,382.0,208.0,52.0,200.0,225.0,174.0,178.0,8.56,-2.97,-3.73,-11.13,14.31,-88.37,0.05,-0.81,-0.56,-0.56,-0.14,-0.83,1.83,259.25,60.81,-141.44
1380,21.880193,t,228.0,423.0,218.0,52.0,199.0,210.0,168.0,176.0,8.66,-2.72,-3.68,-5.81,21.81,-81.44,0.04,-0.81,-0.56,-0.56,-0.31,-0.3,2.42,263.25,63.44,-145.44
1381,21.899197,t,231.0,405.0,237.0,55.0,190.0,201.0,176.0,189.0,8.77,-2.48,-3.6,-14.88,32.06,-72.12,0.03,-0.81,-0.56,-0.56,-1.63,-0.03,1.26,263.25,63.44,-145.44
1382,21.920202,t,235.0,405.0,252.0,58.0,191.0,191.0,176.0,188.0,8.86,-2.27,-3.52,-14.75,28.25,-59.38,0.02,-0.81,-0.57,-0.57,-1.19,0.98,0.13,265.19,64.62,-147.19
1383,21.940207,t,248.0,392.0,265.0,63.0,182.0,187.0,174.0,190.0,8.93,-2.08,-3.46,-28.75,27.25,-49.56,0.01,-0.81,-0.57,-0.57,-0.46,0.67,0.03,267.0,65.62,-148.87
1384,21.960211,t,267.0,383.0,280.0,72.0,178.0,173.0,178.0,201.0,8.99,-1.9,-3.41,-58.75,26.62,-34.94,0.0,0.8,0.57,0.57,-0.58,0.19,0.12,272.19,67.19,-152.87
1385,21.979216,t,268.0,375.0,287.0,80.0,177.0,154.0,177.0,214.0,9.04,-1.73,-3.38,-78.5,26.19,-27.75,0.01,0.8,0.57,0.57,0.12,0.98,-0.33,272.19,67.19,-152.87
1386,21.99922,t,281.0,369.0,283.0,88.0,174.0,138.0,168.0,226.0,9.09,-1.53,-3.34,-114.94,32.56,-22.69,0.03,0.8,0.57,0.57,0.1,-0.67,-0.87,275.75,67.94,-155.37
1387,22.019225,t,276.0,354.0,279.0,102.0,169.0,127.0,171.0,230.0,9.13,-1.34,-3.3,-107.19,30.12,-18.37,0.05,0.79,0.57,0.57,-0.14,-2.79,-1.08,282.19,69.31,-160.0
1388,22.04023,t,262.0,341.0,274.0,110.0,163.0,119.0,157.0,231.0,9.17,-1.18,-3.25,-74.87,26.25,-23.31,0.06,0.79,0.57,0.57,-1.56,-3.57,-0.67,282.19,69.31,-160.0
1389,22.059234,t,257.0,325.0,285.0,125.0,164.0,111.0,158.0,233.0,9.21,-1.03,-3.19,-38.94,21.69,-33.06,0.08,0.79,0.58,0.58,-1.99,-2.49,-0.68,284.19,69.94,-162.06
1390,22.080238,t,249.0,322.0,280.0,125.0,161.0,102.0,154.0,224.0,9.24,-0.89,-3.14,-14.06,18.12,-37.56,0.08,0.79,0.58,0.58,-1.02,-0.64,0.15,285.5,70.5,-164.06
1391,22.099243,t,260.0,336.0,287.0,136.0,168.0,98.0,161.0,225.0,9.27,-0.76,-3.08,-11.0,21.87,-37.13,0.08,0.79,0.58,0.58,-0.75,0.27,-0.56,286.56,71.06,-166.0
1392,22.119247,t,260.0,326.0,288.0,142.0,176.0,98.0,160.0,224.0,9.31,-0.63,-3.0,-20.94,24.12,-33.25,0.09,0.79,0.58,0.58,0.42,0.4,-0.33,287.75,71.69,-168.06
1393,22.139252,t,259.0,313.0,285.0,143.0,176.0,98.0,158.0,219.0,9.34,-0.51,-2.94,-19.5,22.44,-28.81,0.1,0.79,0.58,0.58,-1.02,-2.1,-0.13,288.94,72.25,-169.94
1394,22.159256,t,254.0,300.0,280.0,145.0,180.0,98.0,147.0,214.0,9.36,-0.4,-2.86,-6.87,22.12,-34.5,0.1,0.78,0.59,0.59,-1.99,-2.88,-0.39,290.25,73.0,-172.94
1395,22.179261,t,269.0,319.0,301.0,153.0,194.0,103.0,152.0,219.0,9.39,-0.3,-2.81,3.75,16.69,-28.94,0.11,0.78,0.59,0.59,-1.08,-2.73,-0.88,290.5,73.19,-173.81
1396,22.199265,t,274.0,327.0,307.0,155.0,196.0,106.0,155.0,222.0,9.4,-0.24,-2.77,5.19,11.56,-18.69,0.11,0.78,0.59,0.59,-0.48,-1.28,-0.89,290.81,73.5,-175.0
1397,22.21927,t,279.0,331.0,314.0,162.0,204.0,107.0,156.0,227.0,9.41,-0.19,-2.74,-9.56,8.75,-9.81,0.11,0.78,0.59,0.59,-0.19,-0.18,-0.28,291.5,73.81,-176.25
1398,22.239274,t,272.0,316.0,312.0,159.0,200.0,99.0,150.0,227.0,9.42,-0.15,-2.7,-34.44,12.19,-1.81,0.12,0.78,0.59,0.59,-0.46,0.33,-0.55,291.94,73.94,-176.62
1399,22.259279,t,295.0,345.0,326.0,166.0,213.0,93.0,154.0,236.0,9.43,-0.12,-2.67,-53.75,8.13,4.25,0.13,0.78,0.59,0.59,-0.84,-1.51,-0.98,294.0,74.19,-177.75
1400,22.279283,t,286.0,336.0,313.0,155.0,191.0,80.0,133.0,219.0,9.43,-0.08,-2.65,-64.31,7.5,5.75,0.13,0.78,0.59,0.59,-0.34,-2.01,-1.15,294.75,74.25,-178.19
1401,22.299288,t,297.0,344.0,332.0,168.0,207.0,86.0,146.0,246.0,9.44,-0.05,-2.62,-47.44,13.56,6.81,0.14,0.77,0.59,0.59,1.22,-0.33,0.16,296.0,74.44,-178.75
1402,22.319292,t,306.0,345.0,344.0,171.0,211.0,85.0,145.0,254.0,9.46,-0.03,-2.54,-38.0,25.87,4.56,0.14,0.77,0.59,0.59,2.97,-0.03,0.32,297.31,75.25,-179.37
1403,22.339297,t,298.0,338.0,342.0,173.0,203.0,78.0,145.0,249.0,9.5,0.0,-2.42,-27.5,41.06,-10.44,0.15,0.76,0.6,0.6,4.57,4.28,0.26,297.75,75.69,179.87
1404,22.359301,t,310.0,362.0,363.0,185.0,208.0,85.0,141.0,252.0,9.54,0.11,-2.26,-28.62,53.25,-34.5,0.16,0.76,0.6,0.6,5.8,0.34,-1.33,299.75,77.19,174.62
1405,22.379313,t,302.0,342.0,342.0,178.0,202.0,80.0,133.0,233.0,9.58,0.29,-2.05,-16.69,66.75,-52.69,0.17,0.75,0.61,0.61,4.31,0.96,-1.33,300.44,77.75,171.81
1406,22.399318,t,313.0,370.0,360.0,185.0,220.0,82.0,146.0,236.0,9.62,0.49,-1.82,-9.56,65.44,-58.5,0.18,0.75,0.62,0.62,3.37,-1.23,-2.12,301.81,78.81,164.87
1407,22.419322,t,303.0,368.0,355.0,180.0,231.0,83.0,132.0,236.0,9.64,0.67,-1.62,-29.12,58.38,-48.44,0.19,0.74,0.62,0.62,5.84,-3.46,-3.25,304.0,79.94,153.75
1408,22.439326,t,290.0,357.0,347.0,163.0,233.0,94.0,126.0,234.0,9.66,0.81,-1.44,-51.5,49.94,-29.12,0.2,0.74,0.63,0.63,5.18,-4.81,-4.08,304.87,80.25,150.5
1409,22.459331,t,270.0,371.0,339.0,148.0,231.0,113.0,129.0,217.0,9.68,0.87,-1.26,-49.75,50.81,-5.94,0.21,0.73,0.63,0.63,-0.86,-8.43,-3.86,306.44,81.37,143.25
1410,22.479336,t,244.0,365.0,319.0,140.0,215.0,122.0,130.0,209.0,9.7,0.84,-1.1,-17.25,40.94,18.25,0.21,0.72,0.64,0.64,-2.69,-7.08,-2.04,306.37,81.81,142.37
1411,22.499339,t,230.0,370.0,302.0,136.0,198.0,132.0,129.0,202.0,9.72,0.74,-1.03,18.25,13.44,33.31,0.2,0.72,0.64,0.64,-2.45,-5.57,-1.26,304.81,82.69,147.06
1412,22.519345,t,206.0,362.0,282.0,122.0,186.0,157.0,136.0,188.0,9.73,0.58,-1.06,47.0,-25.87,54.31,0.19,0.73,0.64,0.64,-1.42,-2.8,-1.26,302.94,82.87,156.37
1413,22.539349,t,170.0,372.0,257.0,110.0,173.0,170.0,137.0,168.0,9.72,0.37,-1.18,59.13,-41.38,60.0,0.17,0.73,0.64,0.64,-0.72,-2.94,-1.31,301.69,82.69,162.5
1414,22.559354,t,157.0,395.0,234.0,92.0,169.0,168.0,140.0,158.0,9.7,0.11,-1.37,87.44,-57.06,71.12,0.15,0.74,0.63,0.63,0.97,-3.14,-1.12,297.0,81.37,-179.12
1415,22.579358,t,148.0,418.0,211.0,82.0,165.0,164.0,145.0,142.0,9.68,-0.17,-1.55,95.0,-54.31,75.19,0.13,0.74,0.63,0.63,1.14,-2.85,-0.66,293.12,80.12,-168.5
1416,22.599363,t,148.0,510.0,199.0,76.0,174.0,169.0,151.0,134.0,9.64,-0.5,-1.72,103.75,-56.5,85.25,0.1,0.75,0.63,0.63,1.05,-1.99,-0.91,288.87,78.5,-159.25
1417,22.619368,t,163.0,511.0,196.0,71.0,182.0,174.0,151.0,134.0,9.57,-0.88,-1.92,80.94,-75.44,113.25,0.08,0.75,0.62,0.62,1.65,-0.31,-0.28,284.44,76.31,-151.5
1418,22.639372,t,169.0,466.0,166.0,67.0,186.0,180.0,150.0,136.0,9.47,-1.32,-2.14,57.13,-78.94,123.0,0.06,0.76,0.62,0.62,1.65,0.19,-0.12,280.62,73.69,-145.69
1419,22.659376,t,175.0,393.0,150.0,63.0,199.0,182.0,149.0,136.0,9.34,-1.77,-2.4,-0.06,-80.12,138.06,0.04,0.76,0.61,0.61,2.42,1.98,0.86,277.37,70.81,-141.75
1420,22.679381,t,180.0,373.0,138.0,61.0,200.0,184.0,152.0,127.0,9.17,-2.21,-2.65,-7.12,-75.44,139.25,0.02,0.77,0.6,0.6,1.92,2.17,1.41,274.44,67.94,-138.81
1421,22.699386,t,179.0,355.0,137.0,57.0,204.0,187.0,150.0,122.0,8.99,-2.63,-2.89,-17.87,-72.94,140.81,0.01,0.77,0.59,0.59,0.95,0.53,1.32,271.5,64.94,-136.62
1422,22.71939,t,182.0,310.0,140.0,57.0,204.0,184.0,146.0,116.0,8.64,-3.28,-3.26,-5.87,-82.06,145.19,0.01,-0.77,-0.58,-0.58,1.08,0.68,1.38,268.06,61.75,-134.87
1423,22.739395,t,178.0,274.0,133.0,54.0,202.0,186.0,144.0,109.0,8.51,-3.49,-3.39,-3.94,-82.31,143.06,0.03,-0.77,-0.57,-0.57,1.34,1.23,1.48,264.44,58.63,-133.56
1424,22.759399,t,180.0,259.0,129.0,54.0,206.0,190.0,142.0,108.0,8.08,-4.07,-3.76,-7.12,-82.06,137.87,0.04,-0.77,-0.55,-0.55,1.4,1.2,1.6,260.87,55.5,-132.69
1425,22.779404,t,176.0,237.0,122.0,51.0,201.0,191.0,137.0,105.0,7.93,-4.26,-3.87,-3.12,-81.81,136.62,0.06,-0.77,-0.54,-0.54,1.0,0.49,1.54,257.06,52.5,-131.81
1426,22.799409,t,181.0,231.0,118.0,50.0,219.0,201.0,141.0,109.0,7.62,-4.62,-4.08,10.5,-82.06,126.87,0.08,-0.77,-0.53,-0.53,3.7,2.57,0.91,252.81,49.5,-130.94
1427,22.819412,t,173.0,217.0,110.0,49.0,225.0,205.0,135.0,110.0,7.14,-5.17,-4.28,31.87,-63.88,124.81,0.1,-0.77,-0.52,-0.52,1.88,1.69,1.91,248.25,46.75,-129.62
1428,22.839418,t,165.0,200.0,104.0,50.0,233.0,204.0,129.0,112.0,6.98,-5.34,-4.33,32.81,-64.06,119.94,0.12,-0.77,-0.51,-0.51,1.41,1.56,1.63,231.56,44.13,-128.44
1429,22.859422,t,166.0,194.0,101.0,52.0,243.0,214.0,125.0,119.0,6.51,-5.82,-4.44,43.56,-64.81,109.31,0.14,-0.76,-0.5,-0.5,1.54,3.15,1.61,232.94,41.63,-127.37
1430,22.879427,t,160.0,182.0,98.0,49.0,250.0,222.0,127.0,123.0,6.36,-5.97,-4.46,56.0,-60.38,97.06,0.16,-0.76,-0.5,-0.5,2.04,3.33,1.97,233.87,39.31,-126.12
1431,22.89943,t,164.0,187.0,99.0,50.0,271.0,237.0,141.0,132.0,6.07,-6.26,-4.46,61.38,-54.06,83.19,0.18,-0.76,-0.49,-0.49,1.97,4.55,1.86,234.62,37.25,-124.81
1432,22.919435,t,162.0,191.0,99.0,51.0,280.0,242.0,147.0,138.0,5.69,-6.63,-4.43,56.94,-53.13,70.06,0.19,-0.76,-0.49,-0.49,1.78,4.99,2.07,235.12,35.5,-123.69
1433,22.93944,t,155.0,185.0,94.0,50.0,281.0,244.0,150.0,140.0,5.58,-6.74,-4.42,49.69,-54.13,55.63,0.21,-0.75,-0.48,-0.48,1.47,4.89,2.6,235.37,33.94,-122.87
1434,22.959444,t,158.0,169.0,93.0,50.0,287.0,251.0,157.0,150.0,5.29,-6.96,-4.43,29.94,-53.25,38.94,0.22,-0.75,-0.47,-0.47,0.59,5.29,2.35,235.44,32.63,-122.44
1435,22.979449,t,154.0,158.0,90.0,50.0,280.0,247.0,157.0,157.0,5.21,-7.0,-4.45,1.37,-38.81,20.69,0.23,-0.76,-0.47,-0.47,-0.62,5.25,2.49,235.44,31.75,-122.56
1436,22.999453,t,155.0,160.0,101.0,54.0,283.0,252.0,160.0,165.0,5.09,-7.03,-4.54,0.69,-30.19,2.44,0.23,-0.76,-0.46,-0.46,-1.41,4.57,1.2,235.31,31.31,-122.81
1437,23.019458,t,148.0,171.0,103.0,54.0,286.0,248.0,157.0,166.0,5.08,-7.03,-4.56,16.31,-28.0,-17.44,0.23,-0.76,-0.46,-0.46,-1.16,4.93,0.2,234.69,31.19,-123.0
1438,23.040463,t,146.0,176.0,105.0,53.0,284.0,249.0,157.0,168.0,5.09,-7.02,-4.55,28.31,-18.31,-34.94,0.24,-0.76,-0.46,-0.46,-0.75,4.38,0.92,233.69,31.5,-122.87
1439,23.060466,t,147.0,185.0,103.0,50.0,278.0,248.0,152.0,172.0,5.22,-6.96,-4.52,14.31,-10.0,-51.81,0.23,-0.77,-0.46,-0.46,-0.9,3.86,0.87,232.5,32.13,-122.94
1440,23.080472,t,150.0,198.0,105.0,45.0,252.0,241.0,145.0,156.0,5.29,-6.91,-4.5,13.75,-3.0,-78.75,0.23,-0.77,-0.47,-0.47,-0.87,5.77,0.0,230.94,33.25,-123.19
1441,23.099476,t,159.0,216.0,96.0,45.0,268.0,259.0,155.0,142.0,5.62,-6.68,-4.46,13.25,-1.87,-109.69,0.22,-0.78,-0.47,-0.47,1.37,4.76,1.51,228.81,34.94,-123.69
1442,23.11948,t,175.0,238.0,97.0,44.0,272.0,269.0,168.0,131.0,5.85,-6.4,-4.57,-47.69,-13.06,-114.06,0.21,-0.79,-0.47,-0.47,4.62,1.62,-5.14,226.87,36.63,-125.5
1443,23.140485,t,191.0,245.0,105.0,44.0,274.0,284.0,181.0,116.0,6.05,-6.08,-4.74,-52.56,-49.81,-121.94,0.2,-0.8,-0.47,-0.47,14.95,-0.99,-8.17,224.5,38.06,-127.87
1444,23.16049,t,191.0,251.0,114.0,45.0,246.0,245.0,166.0,117.0,6.18,-5.75,-4.98,-56.06,-34.44,-84.31,0.18,-0.81,-0.46,-0.46,7.96,-13.42,4.69,222.87,39.06,-130.87
1445,23.180494,t,210.0,245.0,129.0,50.0,225.0,216.0,148.0,108.0,6.29,-5.69,-4.9,66.12,-1.06,-67.81,0.18,-0.81,-0.46,-0.46,2.67,2.9,3.83,221.0,39.88,-130.75
1446,23.199499,t,236.0,264.0,142.0,45.0,222.0,226.0,154.0,109.0,6.49,-5.57,-4.77,51.19,10.25,-107.37,0.18,-0.81,-0.47,-0.47,1.15,6.02,3.62,218.69,41.44,-130.56
1447,23.219503,t,241.0,271.0,147.0,45.0,223.0,247.0,158.0,118.0,6.75,-5.31,-4.71,3.5,18.69,-129.56,0.17,-0.82,-0.48,-0.48,5.03,1.33,2.59,216.19,43.5,-131.56
1448,23.239507,t,244.0,272.0,150.0,45.0,220.0,247.0,151.0,133.0,7.02,-5.01,-4.65,-13.75,41.69,-112.5,0.16,-0.82,-0.49,-0.49,6.22,0.82,0.83,233.19,45.75,-132.81
1449,23.260513,t,262.0,283.0,157.0,47.0,223.0,245.0,159.0,141.0,7.26,-4.77,-4.54,-12.44,53.75,-83.31,0.15,-0.82,-0.5,-0.5,1.77,0.51,2.24,236.25,47.75,-133.56
1450,23.279517,t,258.0,282.0,159.0,47.0,210.0,232.0,157.0,142.0,7.45,-4.56,-4.43,-6.06,47.63,-75.44,0.14,-0.82,-0.5,-0.5,1.37,2.42,1.13,238.87,49.5,-134.12
1451,23.299521,t,268.0,297.0,178.0,50.0,210.0,237.0,160.0,152.0,7.64,-4.35,-4.32,-21.75,51.75,-73.19,0.13,-0.82,-0.51,-0.51,0.55,3.04,0.25,241.56,51.25,-134.81
1452,23.319525,t,261.0,319.0,188.0,50.0,210.0,240.0,159.0,160.0,7.83,-4.09,-4.24,-52.06,57.19,-70.75,0.12,-0.82,-0.52,-0.52,1.07,3.02,0.22,245.0,53.0,-135.94
1453,23.33953,t,260.0,335.0,196.0,50.0,211.0,235.0,161.0,162.0,8.01,-3.8,-4.17,-74.69,62.13,-68.62,0.1,-0.82,-0.53,-0.53,0.08,1.32,-0.28,249.25,54.81,-137.62
1454,23.360535,t,253.0,352.0,204.0,48.0,206.0,222.0,165.0,162.0,8.18,-3.52,-4.09,-65.31,56.88,-64.94,0.08,-0.81,-0.53,-0.53,0.02,1.12,-0.76,253.19,56.56,-139.25
1455,23.38054,t,258.0,374.0,217.0,49.0,204.0,218.0,167.0,168.0,8.33,-3.26,-4.01,-66.06,51.38,-59.69,0.06,-0.81,-0.54,-0.54,-0.43,0.7,-1.04,256.81,58.13,-140.87
1456,23.400544,t,262.0,386.0,232.0,55.0,208.0,218.0,167.0,172.0,8.46,-2.98,-3.95,-80.75,50.06,-59.63,0.04,-0.81,-0.54,-0.54,-1.34,1.07,-1.16,260.75,59.63,-143.0
1457,23.420549,t,260.0,365.0,243.0,53.0,198.0,206.0,163.0,174.0,8.58,-2.7,-3.9,-76.81,42.25,-58.94,0.03,-0.81,-0.55,-0.55,-1.68,0.51,-0.23,264.62,61.0,-145.25
1458,23.440553,t,256.0,357.0,242.0,56.0,197.0,195.0,162.0,183.0,8.68,-2.42,-3.85,-78.94,39.0,-59.81,0.01,-0.81,-0.55,-0.55,-1.43,-0.6,-0.53,268.37,62.31,-147.81
1459,23.460558,t,256.0,342.0,245.0,59.0,191.0,186.0,165.0,190.0,8.78,-2.15,-3.79,-69.75,38.94,-55.63,0.01,0.81,0.55,0.55,-1.9,-1.79,-0.12,271.87,63.56,-150.37
1460,23.479562,t,247.0,303.0,242.0,66.0,185.0,158.0,158.0,191.0,8.85,-1.93,-3.73,-48.0,28.62,-47.63,0.02,0.8,0.56,0.56,-2.5,-2.19,0.14,274.62,64.56,-152.62
1461,23.499566,t,242.0,308.0,247.0,75.0,180.0,149.0,155.0,198.0,8.91,-1.75,-3.68,-30.75,21.87,-42.88,0.03,0.8,0.56,0.56,-2.2,-1.19,-0.24,276.62,65.37,-154.56
1462,23.519571,t,232.0,296.0,252.0,82.0,169.0,142.0,155.0,196.0,8.96,-1.6,-3.64,-27.12,19.62,-35.13,0.04,0.8,0.56,0.56,-1.51,-0.94,-0.67,278.25,66.06,-156.19
1463,23.539575,t,234.0,293.0,259.0,86.0,161.0,138.0,154.0,196.0,9.0,-1.47,-3.59,-27.75,19.31,-30.56,0.05,0.8,0.56,0.56,-1.29,-0.41,-0.78,279.75,66.62,-157.69
1464,23.55958,t,235.0,296.0,262.0,92.0,156.0,139.0,156.0,198.0,9.03,-1.35,-3.56,-36.81,16.06,-21.62,0.06,0.8,0.56,0.56,0.2,-1.15,-0.07,281.25,67.12,-159.12
1465,23.579584,t,224.0,283.0,248.0,94.0,150.0,131.0,164.0,190.0,9.06,-1.25,-3.52,-49.69,18.94,-11.75,0.06,0.8,0.56,0.56,0.82,-1.26,0.5,282.25,67.56,-160.37
1466,23.599589,t,236.0,282.0,255.0,103.0,154.0,129.0,171.0,200.0,9.09,-1.15,-3.47,-55.44,23.31,-9.25,0.07,0.8,0.56,0.56,-0.18,-2.09,-0.12,284.12,68.0,-161.56
1467,23.619593,t,234.0,284.0,262.0,106.0,153.0,126.0,173.0,199.0,9.12,-1.07,-3.41,-30.37,23.5,-13.0,0.08,0.8,0.57,0.57,-0.26,-2.47,-0.74,285.5,68.5,-162.5
1468,23.640598,t,235.0,294.0,274.0,107.0,150.0,130.0,174.0,201.0,9.15,-1.01,-3.35,-5.56,20.69,-16.12,0.08,0.79,0.57,0.57,-0.19,-2.15,-0.65,285.62,69.0,-163.12
1469,23.659603,t,226.0,288.0,271.0,102.0,149.0,134.0,163.0,190.0,9.18,-0.96,-3.29,18.94,18.12,-20.56,0.08,0.79,0.57,0.57,-0.19,-1.7,-1.22,285.75,69.5,-163.56
1470,23.679607,t,225.0,290.0,274.0,101.0,148.0,138.0,159.0,194.0,9.21,-0.92,-3.22,30.44,17.12,-22.94,0.08,0.79,0.57,0.57,1.16,-0.91,-0.95,284.87,69.94,-163.94
1471,23.699612,t,231.0,294.0,274.0,102.0,149.0,150.0,165.0,198.0,9.24,-0.88,-3.15,29.56,19.81,-25.69,0.07,0.79,0.58,0.58,2.49,0.02,-0.34,284.62,70.44,-164.37
1472,23.719616,t,230.0,292.0,272.0,100.0,146.0,154.0,160.0,200.0,9.27,-0.81,-3.08,22.69,21.31,-29.62,0.07,0.79,0.58,0.58,3.54,0.36,-0.58,284.56,71.0,-165.12
1473,23.739621,t,233.0,296.0,273.0,101.0,140.0,160.0,162.0,204.0,9.3,-0.74,-3.0,2.44,23.75,-23.0,0.08,0.79,0.59,0.59,4.95,-1.43,-0.19,284.31,71.56,-166.12
1474,23.759625,t,225.0,300.0,260.0,92.0,131.0,154.0,155.0,191.0,9.33,-0.69,-2.92,-24.25,26.56,-4.19,0.08,0.79,0.59,0.59,4.64,-3.27,-0.58,285.0,72.12,-166.56
1475,23.77963,t,210.0,307.0,253.0,82.0,130.0,150.0,149.0,181.0,9.35,-0.69,-2.85,-33.81,23.94,14.69,0.08,0.78,0.59,0.59,3.35,-4.81,-1.31,285.69,72.5,-166.31
1476,23.799634,t,194.0,328.0,225.0,77.0,132.0,148.0,140.0,164.0,9.36,-0.77,-2.8,-21.19,15.13,38.06,0.08,0.78,0.59,0.59,1.19,-4.85,-1.64,285.75,72.69,-164.56
1477,23.819639,t,186.0,348.0,198.0,70.0,133.0,151.0,134.0,148.0,9.36,-0.93,-2.77,-34.25,14.25,65.56,0.08,0.78,0.59,0.59,0.6,-4.87,-0.73,285.37,72.62,-161.31
1478,23.839643,t,190.0,362.0,162.0,67.0,136.0,159.0,142.0,139.0,9.34,-1.15,-2.75,-72.0,9.81,92.44,0.08,0.77,0.59,0.59,-0.18,-5.59,-0.82,285.19,72.25,-157.25
1479,23.859648,t,198.0,367.0,149.0,58.0,140.0,176.0,154.0,123.0,9.29,-1.42,-2.8,-56.69,-12.31,105.62,0.07,0.77,0.59,0.59,-1.26,-5.47,-3.91,284.81,71.31,-153.06
1480,23.880652,t,201.0,368.0,142.0,55.0,168.0,202.0,162.0,119.0,9.19,-1.73,-2.92,-30.62,-37.0,110.69,0.07,0.77,0.59,0.59,-1.74,-5.24,-4.22,283.12,69.69,-149.25
1481,23.900657,t,209.0,364.0,134.0,53.0,180.0,210.0,161.0,131.0,9.07,-2.1,-3.06,-1.06,-47.06,125.19,0.05,0.77,0.58,0.58,0.24,-3.3,-0.6,280.75,67.69,-145.5
1482,23.919661,t,201.0,356.0,130.0,52.0,184.0,216.0,159.0,137.0,8.9,-2.54,-3.23,10.69,-56.94,145.0,0.04,0.77,0.58,0.58,2.68,-0.15,0.09,277.37,65.12,-141.69
1483,23.939666,t,180.0,296.0,129.0,51.0,186.0,213.0,155.0,127.0,8.7,-2.99,-3.37,18.06,-49.94,138.25,0.01,0.77,0.57,0.57,1.03,-0.15,0.63,273.62,62.56,-138.37
1484,23.95967,t,161.0,240.0,122.0,52.0,183.0,191.0,146.0,116.0,8.5,-3.4,-3.49,35.0,-52.75,123.12,0.01,-0.76,-0.56,-0.56,0.4,-0.43,1.27,269.81,60.13,-135.69
1485,23.980675,t,133.0,190.0,117.0,51.0,175.0,172.0,134.0,106.0,8.29,-3.79,-3.61,32.69,-57.75,116.87,0.02,-0.76,-0.56,-0.56,1.3,0.37,2.03,265.75,57.69,-133.56
1486,23.99968,t,130.0,168.0,114.0,52.0,172.0,161.0,129.0,102.0,8.06,-4.14,-3.73,20.81,-54.13,114.87,0.04,-0.76,-0.55,-0.55,0.8,1.85,1.83,260.62,54.13,-131.44
1487,24.019684,t,131.0,149.0,104.0,50.0,175.0,157.0,121.0,103.0,7.82,-4.45,-3.87,-4.44,-53.13,115.0,0.05,-0.76,-0.55,-0.55,0.12,1.56,1.02,259.19,52.94,-131.0
1488,24.039688,t,123.0,142.0,90.0,51.0,188.0,169.0,119.0,106.0,7.55,-4.74,-4.07,-16.06,-63.06,118.25,0.07,-0.76,-0.53,-0.53,-0.09,0.33,-0.52,254.62,49.06,-130.44
1489,24.060693,t,129.0,157.0,94.0,52.0,207.0,196.0,127.0,112.0,7.27,-5.0,-4.26,13.94,-83.44,87.37,0.09,-0.76,-0.52,-0.52,2.97,0.69,-1.0,251.12,46.88,-130.0
1490,24.079698,t,137.0,181.0,95.0,52.0,222.0,224.0,138.0,117.0,7.04,-5.28,-4.31,61.69,-47.06,90.5,0.1,-0.76,-0.52,-0.52,-0.98,-0.75,1.05,248.5,45.88,-129.19
1491,24.099702,t,136.0,186.0,98.0,53.0,245.0,237.0,153.0,118.0,6.79,-5.6,-4.3,81.87,-59.19,91.06,0.13,-0.76,-0.51,-0.51,0.48,0.66,2.0,233.12,42.75,-126.56
1492,24.119707,t,132.0,189.0,99.0,52.0,257.0,245.0,153.0,119.0,6.52,-5.95,-4.25,105.37,-65.94,82.87,0.16,-0.76,-0.51,-0.51,1.47,2.45,2.15,233.19,41.69,-125.56
1493,24.139711,t,131.0,190.0,101.0,52.0,272.0,255.0,153.0,127.0,6.27,-6.28,-4.16,108.25,-58.5,75.87,0.18,-0.75,-0.51,-0.51,1.37,4.77,1.79,232.62,39.75,-123.5
1494,24.159716,t,133.0,186.0,99.0,52.0,288.0,264.0,150.0,139.0,6.04,-6.56,-4.07,89.94,-58.19,67.75,0.2,-0.75,-0.5,-0.5,0.93,5.63,1.82,232.69,37.13,-121.12
1495,24.17972,t,135.0,183.0,91.0,51.0,293.0,261.0,148.0,149.0,5.81,-6.78,-4.03,58.44,-60.44,58.5,0.22,-0.75,-0.5,-0.5,0.66,5.58,2.01,232.75,36.38,-120.75
1496,24.199725,t,140.0,160.0,90.0,52.0,302.0,262.0,149.0,158.0,5.61,-6.92,-4.07,26.81,-59.81,45.5,0.23,-0.75,-0.49,-0.49,-0.64,5.38,2.54,232.87,34.31,-120.5
1497,24.219729,t,134.0,146.0,84.0,50.0,295.0,262.0,142.0,169.0,5.45,-7.01,-4.15,9.38,-53.63,33.75,0.24,-0.76,-0.48,-0.48,-0.95,5.43,2.52,232.87,33.75,-120.56
1498,24.239734,t,138.0,142.0,85.0,53.0,290.0,262.0,142.0,170.0,5.32,-7.05,-4.25,-9.44,-47.31,20.37,0.24,-0.76,-0.47,-0.47,-1.36,4.29,2.25,232.87,32.5,-121.37
1499,24.259738,t,139.0,152.0,80.0,55.0,290.0,266.0,140.0,170.0,5.24,-7.05,-4.34,-6.0,-35.94,3.19,0.24,-0.76,-0.47,-0.47,-1.47,3.67,0.74,232.56,32.19,-121.81
1500,24.279743,t,136.0,160.0,84.0,54.0,282.0,260.0,137.0,169.0,5.21,-7.03,-4.4,3.31,-32.06,-12.38,0.24,-0.77,-0.47,-0.47,-0.85,3.42,0.12,232.25,32.13,-122.0
1501,24.299747,t,140.0,166.0,86.0,53.0,283.0,270.0,132.0,168.0,5.24,-7.02,-4.39,25.87,-8.75,-37.31,0.24,-0.77,-0.47,-0.47,-1.03,3.52,1.16,230.87,32.56,-121.87
1502,24.319752,t,139.0,172.0,82.0,49.0,277.0,276.0,129.0,157.0,5.33,-6.98,-4.34,19.69,-1.81,-46.38,0.24,-0.77,-0.47,-0.47,-1.31,3.97,0.06,229.69,33.5,-121.87
1503,24.339756,t,143.0,187.0,80.0,46.0,277.0,293.0,143.0,137.0,5.5,-6.89,-4.28,23.69,7.94,-74.19,0.24,-0.77,-0.48,-0.48,-0.21,1.88,-0.56,228.12,34.81,-122.0
1504,24.359761,t,154.0,205.0,79.0,44.0,281.0,291.0,153.0,110.0,5.69,-6.73,-4.28,-14.31,-20.75,-83.62,0.23,-0.78,-0.48,-0.48,9.02,7.52,-0.9,226.5,36.0,-123.06
1505,24.379765,t,160.0,206.0,84.0,46.0,274.0,307.0,161.0,106.0,5.84,-6.52,-4.4,-38.31,-34.94,-88.75,0.22,-0.79,-0.47,-0.47,12.07,5.15,-4.14,225.62,36.56,-124.0
1506,24.39977,t,181.0,223.0,92.0,45.0,263.0,312.0,149.0,110.0,6.02,-6.18,-4.65,-84.81,-1.81,-92.56,0.2,-0.8,-0.47,-0.47,7.08,-8.59,-0.58,223.69,38.56,-128.25
1507,24.420775,t,191.0,205.0,98.0,42.0,213.0,258.0,143.0,105.0,6.18,-5.9,-4.79,-36.56,-11.75,-78.87,0.19,-0.8,-0.47,-0.47,6.6,-6.37,1.11,222.25,39.56,-129.37
1508,24.439779,t,215.0,220.0,122.0,45.0,208.0,244.0,152.0,110.0,6.31,-5.8,-4.75,46.13,-2.56,-67.5,0.19,-0.81,-0.47,-0.47,2.34,5.85,1.07,220.37,40.63,-129.12
1509,24.459784,t,225.0,232.0,126.0,45.0,206.0,259.0,158.0,112.0,6.48,-5.69,-4.65,9.56,14.31,-103.5,0.18,-0.81,-0.48,-0.48,2.31,1.83,1.37,218.37,42.25,-129.62
1510,24.479788,t,230.0,235.0,125.0,45.0,210.0,267.0,154.0,117.0,6.72,-5.45,-4.61,-8.25,22.87,-111.94,0.17,-0.81,-0.49,-0.49,2.51,-0.22,0.98,216.44,44.25,-130.75
1511,24.499792,t,237.0,244.0,133.0,46.0,203.0,270.0,152.0,118.0,6.96,-5.19,-4.54,-1.12,34.13,-86.75,0.16,-0.81,-0.49,-0.49,2.81,1.47,0.22,233.37,46.13,-131.5
1512,24.519797,t,230.0,254.0,142.0,45.0,190.0,256.0,152.0,122.0,7.16,-4.99,-4.46,-2.81,34.38,-76.31,0.15,-0.82,-0.5,-0.5,1.96,2.36,1.24,235.56,47.63,-132.06
1513,24.539802,t,236.0,276.0,154.0,45.0,191.0,256.0,155.0,134.0,7.33,-4.79,-4.39,-6.81,33.75,-74.5,0.15,-0.82,-0.51,-0.51,0.48,2.45,0.58,238.0,49.19,-132.87
1514,24.559806,t,241.0,281.0,163.0,45.0,191.0,255.0,162.0,136.0,7.59,-4.46,-4.3,-27.19,34.13,-73.44,0.13,-0.82,-0.51,-0.51,1.41,1.71,0.15,240.69,50.75,-133.94
1515,24.579811,t,237.0,285.0,161.0,44.0,186.0,244.0,159.0,145.0,7.68,-4.34,-4.27,-30.69,40.5,-71.0,0.12,-0.82,-0.52,-0.52,0.12,1.14,0.38,243.69,52.38,-135.06
1516,24.599815,t,244.0,303.0,174.0,46.0,189.0,248.0,161.0,151.0,7.92,-3.98,-4.18,-33.13,39.56,-67.81,0.11,-0.82,-0.52,-0.52,0.47,1.75,-0.17,246.62,53.88,-136.31
1517,24.619819,t,240.0,317.0,181.0,48.0,184.0,242.0,159.0,157.0,7.99,-3.87,-4.14,-28.56,39.44,-66.37,0.1,-0.82,-0.53,-0.53,1.16,1.33,-0.66,249.25,55.31,-137.5
1518,24.639824,t,246.0,330.0,184.0,50.0,188.0,239.0,159.0,162.0,8.14,-3.64,-4.07,-37.88,47.13,-69.25,0.08,-0.81,-0.54,-0.54,-1.72,0.21,0.08,252.19,56.88,-138.87
1519,24.659829,t,251.0,340.0,186.0,50.0,191.0,234.0,159.0,164.0,8.35,-3.26,-3.96,-51.69,41.75,-62.31,0.07,-0.81,-0.54,-0.54,-1.97,0.5,-0.03,255.37,58.38,-140.44
1520,24.679833,t,250.0,350.0,196.0,52.0,187.0,225.0,148.0,166.0,8.4,-3.14,-3.94,-50.69,35.69,-58.75,0.06,-0.81,-0.55,-0.55,-1.14,0.75,0.15,258.31,59.63,-142.25
1521,24.699838,t,248.0,333.0,208.0,54.0,185.0,214.0,148.0,168.0,8.56,-2.8,-3.86,-46.31,36.88,-52.63,0.04,-0.81,-0.55,-0.55,-1.23,0.9,-0.27,261.12,60.81,-143.94
1522,24.719842,t,246.0,319.0,210.0,53.0,182.0,196.0,146.0,168.0,8.61,-2.7,-3.83,-41.63,33.0,-50.69,0.04,-0.81,-0.55,-0.55,-1.48,0.3,-0.33,262.37,61.94,-145.56
1523,24.739847,t,251.0,319.0,223.0,56.0,185.0,183.0,156.0,178.0,8.69,-2.49,-3.77,-51.81,26.81,-48.94,0.02,-0.81,-0.55,-0.55,-1.35,-0.43,0.22,265.0,63.0,-147.5
1524,24.759851,t,239.0,289.0,236.0,58.0,178.0,166.0,154.0,184.0,8.8,-2.17,-3.73,-59.63,21.87,-46.0,0.01,-0.81,-0.56,-0.56,-1.26,-0.57,-0.05,267.75,63.81,-149.75
1525,24.780856,t,232.0,280.0,238.0,59.0,173.0,149.0,152.0,187.0,8.83,-2.06,-3.72,-63.31,24.19,-39.88,0.0,-0.81,-0.56,-0.56,-1.79,-0.37,-0.38,269.31,64.62,-152.0
1526,24.79986,t,234.0,283.0,243.0,68.0,168.0,141.0,154.0,189.0,8.91,-1.78,-3.67,-61.81,23.94,-31.69,0.01,0.81,0.56,0.56,-0.91,-0.94,-0.32,271.94,65.37,-154.06
1527,24.819865,t,230.0,277.0,240.0,70.0,158.0,131.0,150.0,186.0,8.93,-1.7,-3.65,-56.75,22.56,-22.37,0.02,0.81,0.56,0.56,-0.72,-1.65,-0.21,273.06,66.0,-155.75
1528,24.839869,t,227.0,273.0,249.0,78.0,159.0,129.0,149.0,195.0,8.97,-1.57,-3.61,-43.38,18.56,-15.25,0.02,0.81,0.56,0.56,-0.91,-1.69,-0.36,274.81,66.44,-157.0
1529,24.859874,t,217.0,270.0,255.0,81.0,158.0,126.0,157.0,194.0,9.02,-1.44,-3.56,-30.87,17.5,-12.5,0.03,0.81,0.56,0.56,-0.44,-1.54,-0.38,276.12,66.87,-157.94
1530,24.879879,t,218.0,277.0,265.0,84.0,157.0,121.0,163.0,196.0,9.03,-1.4,-3.54,-26.31,17.19,-11.75,0.04,0.81,0.56,0.56,-0.3,-1.06,-0.04,277.19,67.31,-158.69
1531,24.899883,t,220.0,284.0,272.0,86.0,155.0,122.0,161.0,199.0,9.07,-1.3,-3.48,-21.12,14.69,-15.44,0.04,0.8,0.57,0.57,-0.19,-1.33,-0.69,278.19,67.69,-159.5
1532,24.919888,t,211.0,275.0,263.0,88.0,149.0,120.0,162.0,195.0,9.09,-1.22,-3.44,-10.06,15.5,-21.69,0.05,0.8,0.57,0.57,0.32,-1.75,-0.22,279.06,68.06,-160.44
1533,24.939892,t,223.0,282.0,272.0,91.0,150.0,129.0,167.0,196.0,9.13,-1.14,-3.38,4.62,19.5,-26.06,0.05,0.8,0.57,0.57,-0.07,-1.91,-0.78,279.56,68.56,-161.31
1534,24.959897,t,220.0,278.0,271.0,91.0,149.0,133.0,167.0,197.0,9.16,-1.07,-3.3,23.87,23.06,-27.25,0.05,0.8,0.57,0.57,-0.12,-1.61,-1.11,279.69,69.19,-161.87
1535,24.979901,t,223.0,286.0,274.0,91.0,150.0,142.0,174.0,196.0,9.2,-1.03,-3.22,38.94,21.69,-26.81,0.05,0.8,0.58,0.58,1.45,-0.18,-0.85,279.25,69.75,-162.19
1536,24.999906,t,227.0,290.0,276.0,90.0,154.0,152.0,178.0,200.0,9.23,-0.98,-3.14,31.19,24.06,-26.12,0.05,0.8,0.58,0.58,2.65,-0.03,-1.02,278.94,70.37,-162.5
1537,25.01991,t,222.0,286.0,268.0,90.0,145.0,153.0,181.0,201.0,9.27,-0.93,-3.05,20.06,23.19,-23.44,0.05,0.8,0.58,0.58,3.46,-1.59,-0.76,278.81,70.94,-162.94
1538,25.039915,t,230.0,293.0,272.0,96.0,143.0,154.0,187.0,212.0,9.29,-0.89,-2.99,8.56,16.69,-14.63,0.05,0.8,0.59,0.59,4.8,-2.14,-0.46,278.94,71.37,-163.37
1539,25.059919,t,222.0,282.0,263.0,94.0,134.0,150.0,176.0,210.0,9.31,-0.88,-2.94,-0.56,15.88,0.06,0.05,0.79,0.59,0.59,3.74,-3.89,-0.99,279.0,71.69,-163.31
1540,25.079924,t,202.0,292.0,254.0,91.0,133.0,149.0,166.0,191.0,9.32,-0.92,-2.9,0.06,12.75,17.81,0.04,0.79,0.59,0.59,2.34,-4.6,-1.04,277.87,71.87,-162.31
1541,25.099928,t,182.0,306.0,227.0,80.0,127.0,152.0,155.0,170.0,9.31,-1.04,-2.87,1.19,7.62,42.56,0.04,0.79,0.59,0.59,0.97,-4.6,-0.17,277.12,71.81,-160.06
1542,25.119933,t,171.0,335.0,194.0,69.0,126.0,152.0,152.0,152.0,9.3,-1.22,-2.85,-24.44,8.5,71.62,0.03,0.79,0.59,0.59,-0.44,-4.93,0.46,275.25,71.5,-156.62
1543,25.139937,t,176.0,364.0,159.0,67.0,133.0,160.0,158.0,138.0,9.26,-1.47,-2.85,-64.75,4.62,99.62,0.03,0.79,0.59,0.59,-0.47,-6.66,-1.23,274.87,70.81,-152.69
1544,25.159942,t,191.0,372.0,141.0,58.0,150.0,182.0,166.0,122.0,9.19,-1.76,-2.9,-42.13,-7.56,112.31,0.02,0.78,0.59,0.59,-1.05,-5.94,-2.72,274.12,69.69,-148.56
1545,25.179946,t,203.0,368.0,127.0,54.0,176.0,217.0,165.0,116.0,9.09,-2.11,-2.98,-6.56,-29.87,113.44,0.01,0.78,0.59,0.59,0.4,-3.68,-2.73,271.25,68.06,-144.69
1546,25.199951,t,204.0,362.0,116.0,53.0,177.0,218.0,157.0,123.0,8.96,-2.49,-3.1,16.37,-43.06,123.75,0.01,-0.78,-0.58,-0.58,1.02,-1.2,-1.51,268.31,66.0,-141.12
1547,25.219955,t,190.0,329.0,110.0,50.0,181.0,222.0,149.0,126.0,8.77,-2.93,-3.24,24.06,-56.5,135.81,0.03,-0.78,-0.58,-0.58,3.28,1.39,-0.82,264.62,63.5,-137.87
1548,25.23996,t,166.0,285.0,110.0,52.0,178.0,218.0,145.0,121.0,8.56,-3.36,-3.38,22.25,-52.88,134.69,0.05,-0.78,-0.57,-0.57,1.42,1.02,0.03,260.81,60.88,-135.12
1549,25.259964,t,151.0,234.0,109.0,52.0,168.0,200.0,132.0,113.0,8.35,-3.75,-3.51,21.25,-55.19,122.25,0.06,-0.78,-0.56,-0.56,1.81,1.4,1.41,257.19,58.31,-133.06
1550,25.279969,t,129.0,181.0,104.0,49.0,157.0,173.0,114.0,106.0,8.11,-4.11,-3.65,10.0,-57.06,120.69,0.08,-0.78,-0.55,-0.55,1.47,1.91,1.29,253.75,55.81,-131.62
1551,25.299974,t,133.0,166.0,102.0,51.0,165.0,163.0,115.0,104.0,7.86,-4.44,-3.81,0.25,-60.06,120.19,0.09,-0.78,-0.54,-0.54,0.97,1.47,0.54,250.5,53.25,-130.56
1552,25.319978,t,123.0,145.0,97.0,50.0,170.0,164.0,111.0,103.0,7.6,-4.74,-3.97,-2.06,-60.19,109.94,0.11,-0.78,-0.53,-0.53,0.6,1.09,0.45,247.37,50.81,-129.94
1553,25.339983,t,122.0,144.0,91.0,52.0,189.0,200.0,112.0,106.0,7.35,-4.98,-4.15,-0.69,-70.69,84.94,0.12,-0.79,-0.52,-0.52,4.44,2.27,-0.59,244.5,48.56,-129.75
1554,25.359987,t,130.0,162.0,95.0,52.0,216.0,221.0,124.0,117.0,7.13,-5.2,-4.27,25.81,-51.94,75.81,0.13,-0.79,-0.51,-0.51,-0.61,-0.17,0.1,241.37,46.63,-129.37
1555,25.380992,t,134.0,180.0,96.0,52.0,227.0,232.0,141.0,119.0,6.88,-5.49,-4.3,69.12,-65.19,87.75,0.15,-0.79,-0.51,-0.51,-0.91,0.29,0.75,224.31,44.63,-128.06
1556,25.399996,t,135.0,189.0,96.0,52.0,251.0,246.0,148.0,120.0,6.6,-5.81,-4.32,88.5,-82.75,80.12,0.18,-0.79,-0.5,-0.5,1.9,1.64,1.96,224.5,42.31,-126.62
1557,25.420001,t,125.0,183.0,88.0,45.0,257.0,238.0,140.0,109.0,6.35,-6.11,-4.29,93.75,-65.5,69.25,0.2,-0.78,-0.49,-0.49,1.41,2.76,2.29,224.5,40.38,-125.06
1558,25.439005,t,132.0,189.0,94.0,52.0,280.0,262.0,150.0,129.0,6.12,-6.38,-4.22,93.25,-59.19,62.88,0.22,-0.78,-0.49,-0.49,0.87,4.02,2.11,224.37,38.63,-123.44
1559,25.46001,t,133.0,186.0,93.0,53.0,294.0,268.0,147.0,136.0,5.9,-6.62,-4.16,78.06,-59.88,57.88,0.24,-0.78,-0.48,-0.48,0.54,4.76,1.82,224.31,37.0,-122.06
1560,25.480014,t,138.0,186.0,90.0,53.0,308.0,274.0,146.0,141.0,5.71,-6.81,-4.13,51.44,-54.19,46.94,0.25,-0.78,-0.48,-0.48,-0.07,5.17,2.31,224.31,35.63,-121.25
1561,25.500019,t,148.0,187.0,90.0,52.0,307.0,274.0,148.0,144.0,5.54,-6.93,-4.16,22.31,-50.88,38.25,0.27,-0.78,-0.46,-0.46,0.17,4.66,2.52,224.37,34.38,-121.0
1562,25.520024,t,140.0,178.0,84.0,51.0,301.0,270.0,145.0,148.0,5.39,-7.01,-4.21,17.87,-45.31,30.56,0.27,-0.78,-0.46,-0.46,-0.04,4.08,2.75,224.37,33.38,-120.94
1563,25.539027,t,144.0,165.0,82.0,50.0,305.0,280.0,142.0,158.0,5.28,-7.08,-4.24,18.31,-42.31,20.12,0.28,-0.78,-0.45,-0.45,0.15,4.39,2.91,224.31,32.56,-120.87
1564,25.559032,t,142.0,151.0,81.0,53.0,299.0,277.0,142.0,167.0,5.2,-7.11,-4.29,2.62,-32.56,7.0,0.28,-0.79,-0.45,-0.45,-0.18,4.03,1.75,224.06,32.0,-121.06
1565,25.579036,t,140.0,149.0,75.0,51.0,287.0,271.0,139.0,164.0,5.17,-7.11,-4.32,6.87,-20.75,-7.25,0.28,-0.79,-0.45,-0.45,-1.05,3.94,1.14,223.75,31.81,-121.25
1566,25.599041,t,149.0,170.0,82.0,53.0,297.0,280.0,144.0,172.0,5.18,-7.09,-4.34,6.87,-19.31,-20.44,0.28,-0.79,-0.45,-0.45,-1.54,3.55,-0.19,223.19,31.94,-121.44
1567,25.619046,t,147.0,177.0,78.0,52.0,294.0,274.0,143.0,167.0,5.24,-7.05,-4.33,14.94,-11.5,-36.25,0.28,-0.79,-0.45,-0.45,-1.05,3.23,1.92,222.31,32.31,-121.56
1568,25.639051,t,147.0,188.0,83.0,53.0,288.0,273.0,132.0,161.0,5.35,-6.98,-4.31,7.56,0.5,-51.44,0.28,-0.8,-0.45,-0.45,-1.05,2.63,1.39,221.25,33.06,-121.69
1569,25.659055,t,147.0,190.0,74.0,50.0,286.0,290.0,129.0,147.0,5.52,-6.87,-4.28,7.56,12.94,-68.0,0.27,-0.8,-0.45,-0.45,-0.34,0.88,0.28,220.06,34.25,-121.87
1570,25.679059,t,150.0,209.0,72.0,45.0,286.0,305.0,138.0,126.0,5.71,-6.74,-4.24,-3.56,12.13,-71.69,0.27,-0.8,-0.46,-0.46,0.41,-1.29,-2.85,218.75,35.63,-122.19
1571,25.700064,t,144.0,207.0,66.0,44.0,280.0,308.0,144.0,102.0,5.86,-6.58,-4.29,-13.13,-25.12,-72.75,0.26,-0.81,-0.46,-0.46,12.92,3.65,-1.8,217.25,36.69,-123.06
1572,25.720082,t,153.0,216.0,78.0,43.0,258.0,300.0,147.0,107.0,5.97,-6.35,-4.49,-73.56,-18.12,-70.19,0.25,-0.81,-0.46,-0.46,10.92,-8.36,-5.6,216.12,37.5,-125.25
1573,25.740086,t,182.0,224.0,93.0,44.0,229.0,276.0,144.0,110.0,6.09,-6.17,-4.58,-15.75,-14.44,-56.5,0.24,-0.82,-0.46,-0.46,5.82,-3.5,2.97,215.12,38.38,-126.56
1574,25.760126,t,190.0,226.0,102.0,44.0,211.0,258.0,147.0,108.0,6.21,-6.07,-4.54,19.06,16.87,-55.88,0.24,-0.82,-0.46,-0.46,1.73,2.77,1.76,214.0,39.31,-126.75
1575,25.779119,t,200.0,235.0,113.0,45.0,208.0,262.0,150.0,110.0,6.39,-5.94,-4.46,26.31,8.88,-85.19,0.23,-0.82,-0.47,-0.47,2.52,4.66,0.81,212.37,40.69,-126.87
1576,25.799125,t,206.0,235.0,117.0,44.0,202.0,264.0,148.0,115.0,6.61,-5.73,-4.41,9.06,14.56,-106.75,0.22,-0.82,-0.48,-0.48,3.75,2.13,0.44,209.31,43.38,-127.94
1577,25.819129,t,216.0,233.0,130.0,44.0,190.0,263.0,148.0,116.0,6.85,-5.5,-4.34,6.56,27.37,-97.94,0.22,-0.82,-0.48,-0.48,2.26,-0.12,-0.33,208.44,44.31,-128.25
1578,25.839133,t,226.0,239.0,149.0,46.0,186.0,258.0,154.0,118.0,7.04,-5.31,-4.26,14.94,18.25,-84.69,0.21,-0.82,-0.49,-0.49,1.58,1.8,-0.16,223.37,46.63,-128.94
1579,25.860138,t,225.0,243.0,157.0,46.0,179.0,255.0,155.0,122.0,7.21,-5.14,-4.2,15.06,15.06,-82.69,0.2,-0.83,-0.5,-0.5,1.71,2.31,0.3,224.12,47.38,-129.25
1580,25.879142,t,229.0,255.0,165.0,46.0,180.0,252.0,165.0,134.0,7.38,-4.94,-4.14,-0.81,21.06,-81.0,0.2,-0.83,-0.5,-0.5,1.15,1.62,0.74,226.0,48.81,-130.0
1581,25.899147,t,238.0,264.0,171.0,46.0,181.0,250.0,169.0,142.0,7.55,-4.72,-4.09,-11.25,27.94,-74.81,0.19,-0.83,-0.51,-0.51,0.7,1.52,0.26,229.37,51.06,-131.31
1582,25.920151,t,238.0,281.0,168.0,45.0,182.0,251.0,161.0,146.0,7.7,-4.51,-4.05,-29.62,31.44,-69.56,0.18,-0.83,-0.51,-0.51,0.21,0.9,1.05,230.69,51.75,-131.87
1583,25.939156,t,242.0,293.0,178.0,48.0,177.0,249.0,164.0,155.0,7.85,-4.28,-4.01,-35.75,34.5,-64.69,0.16,-0.83,-0.52,-0.52,0.67,2.04,1.06,234.81,53.88,-133.62
1584,25.959161,t,238.0,302.0,179.0,46.0,170.0,227.0,156.0,144.0,8.0,-4.07,-3.94,-35.38,44.75,-61.44,0.15,-0.82,-0.53,-0.53,0.77,2.45,-0.26,236.19,54.63,-134.06
1585,25.980164,t,245.0,314.0,196.0,50.0,187.0,244.0,172.0,167.0,8.14,-3.82,-3.88,-58.25,49.81,-60.56,0.14,-0.82,-0.53,-0.53,-0.4,0.26,-0.44,239.44,56.19,-135.37
1586,26.00017,t,253.0,338.0,202.0,50.0,191.0,239.0,170.0,173.0,8.28,-3.58,-3.83,-61.88,41.31,-55.5,0.12,-0.82,-0.54,-0.54,-1.62,-0.24,-0.56,244.31,58.19,-137.75
1587,26.020174,t,249.0,326.0,196.0,48.0,176.0,215.0,153.0,154.0,8.38,-3.35,-3.82,-56.81,25.62,-52.81,0.11,-0.82,-0.54,-0.54,-1.67,0.09,-0.66,245.75,58.69,-138.69
1588,26.040179,t,262.0,342.0,221.0,54.0,190.0,216.0,158.0,173.0,8.47,-3.13,-3.81,-54.13,22.94,-50.56,0.1,-0.82,-0.54,-0.54,-0.88,-0.92,-0.21,249.87,60.19,-141.44
1589,26.060183,t,243.0,354.0,214.0,51.0,178.0,191.0,149.0,162.0,8.55,-2.93,-3.78,-40.94,26.25,-49.81,0.09,-0.82,-0.55,-0.55,-1.24,-1.09,-0.57,251.06,60.75,-142.25
1590,26.080188,t,251.0,417.0,227.0,56.0,194.0,190.0,167.0,168.0,8.63,-2.74,-3.76,-32.06,18.06,-46.56,0.08,-0.82,-0.55,-0.55,-2.5,-2.29,-0.52,253.94,61.94,-144.62
1591,26.100192,t,229.0,394.0,237.0,54.0,178.0,168.0,162.0,166.0,8.67,-2.59,-3.76,-12.44,0.62,-42.88,0.07,-0.82,-0.55,-0.55,-1.18,1.12,1.13,255.0,62.38,-146.12
1592,26.120197,t,230.0,398.0,254.0,65.0,178.0,155.0,168.0,170.0,8.71,-2.46,-3.77,0.0,-2.5,-42.88,0.07,-0.82,-0.55,-0.55,-0.67,1.81,1.62,255.94,62.88,-147.56
1593,26.139201,t,237.0,392.0,270.0,70.0,178.0,146.0,176.0,184.0,8.75,-2.31,-3.77,-32.0,16.94,-44.38,0.06,-0.82,-0.55,-0.55,0.33,1.96,1.14,257.62,63.5,-149.25
1594,26.160206,t,238.0,395.0,282.0,74.0,177.0,136.0,174.0,198.0,8.81,-2.13,-3.73,-49.06,23.62,-42.38,0.05,-0.82,-0.56,-0.56,0.27,1.1,0.81,258.81,63.94,-150.25
1595,26.18021,t,246.0,400.0,286.0,80.0,180.0,134.0,184.0,200.0,8.87,-1.93,-3.69,-65.81,33.06,-36.94,0.03,-0.82,-0.56,-0.56,0.34,-1.93,0.56,262.87,65.25,-153.19
1596,26.200215,t,252.0,387.0,286.0,86.0,183.0,127.0,184.0,206.0,8.94,-1.77,-3.61,-48.38,33.31,-19.19,0.02,-0.82,-0.56,-0.56,-0.86,-2.19,0.07,265.06,66.12,-154.44
1597,26.220219,t,254.0,362.0,285.0,86.0,180.0,122.0,184.0,208.0,8.98,-1.66,-3.54,-40.69,28.12,-13.94,0.02,-0.82,-0.57,-0.57,-1.3,-2.4,-1.23,266.5,66.69,-155.12
1598,26.240224,t,260.0,360.0,284.0,93.0,177.0,116.0,184.0,210.0,9.02,-1.59,-3.49,-19.56,14.38,-8.88,0.01,-0.81,-0.57,-0.57,-1.46,-2.86,-1.12,267.37,67.06,-155.69
1599,26.260228,t,260.0,336.0,273.0,92.0,170.0,111.0,171.0,210.0,9.04,-1.54,-3.46,-17.0,12.0,-8.69,0.01,-0.81,-0.57,-0.57,-1.39,-2.07,-0.27,268.0,67.31,-156.12
1600,26.280233,t,259.0,301.0,261.0,92.0,161.0,106.0,166.0,203.0,9.05,-1.5,-3.43,-6.69,12.44,-9.56,0.01,-0.81,-0.57,-0.57,-0.43,-1.32,-0.41,268.37,67.69,-156.37
1601,26.300237,t,271.0,308.0,276.0,97.0,164.0,120.0,178.0,215.0,9.08,-1.47,-3.37,15.0,23.62,-18.19,0.01,-0.81,-0.57,-0.57,0.29,0.42,0.19,268.44,68.19,-156.44
1602,26.319242,t,268.0,307.0,279.0,95.0,162.0,127.0,183.0,214.0,9.12,-1.43,-3.28,18.5,26.12,-19.31,0.01,-0.81,-0.58,-0.58,0.08,0.75,-0.53,268.37,68.87,-156.37
1603,26.339246,t,268.0,316.0,285.0,95.0,160.0,135.0,196.0,215.0,9.18,-1.36,-3.14,22.19,25.87,-24.37,0.01,-0.81,-0.58,-0.58,0.84,0.6,-0.39,268.31,69.5,-156.5
1604,26.360251,t,265.0,312.0,280.0,95.0,156.0,138.0,200.0,212.0,9.2,-1.33,-3.1,18.19,24.12,-24.81,0.01,-0.8,-0.59,-0.59,2.25,0.03,-0.29,268.44,70.12,-156.94
1605,26.380256,t,271.0,305.0,279.0,99.0,154.0,142.0,208.0,215.0,9.24,-1.26,-3.03,9.63,19.0,-26.5,0.01,-0.8,-0.59,-0.59,2.68,0.13,-0.21,268.81,70.62,-157.81
1606,26.39926,t,264.0,291.0,277.0,101.0,150.0,142.0,207.0,215.0,9.27,-1.13,-2.95,10.63,14.75,-28.5,0.0,-0.8,-0.59,-0.59,3.46,-0.14,-0.47,269.19,71.12,-158.87
1607,26.420265,t,247.0,294.0,277.0,100.0,144.0,141.0,194.0,214.0,9.29,-1.1,-2.92,15.88,18.19,-26.62,0.0,-0.8,-0.59,-0.59,4.25,0.1,-1.1,269.37,71.62,-159.62
1608,26.440269,t,235.0,302.0,281.0,101.0,137.0,144.0,183.0,211.0,9.32,-1.03,-2.84,-14.31,18.25,-6.5,0.0,-0.8,-0.6,-0.6,4.98,-2.51,-2.21,269.81,72.0,-160.0
1609,26.460274,t,215.0,278.0,257.0,92.0,129.0,145.0,169.0,182.0,9.33,-1.03,-2.8,-20.19,23.56,6.12,0.0,0.8,0.6,0.6,3.77,-3.21,-1.59,270.25,72.44,-159.12
1610,26.479278,t,199.0,292.0,232.0,83.0,127.0,149.0,154.0,169.0,9.35,-1.09,-2.72,-45.44,29.62,51.44,0.0,0.79,0.6,0.6,1.61,-3.54,-0.22,270.44,72.62,-156.56
1611,26.499282,t,196.0,306.0,206.0,72.0,127.0,142.0,142.0,155.0,9.35,-1.32,-2.63,-79.62,24.56,76.81,0.01,0.79,0.6,0.6,0.74,-4.53,0.03,271.0,72.5,-153.25
1612,26.519287,t,189.0,306.0,168.0,69.0,124.0,138.0,141.0,135.0,9.34,-1.42,-2.61,-83.75,21.06,85.87,0.01,0.78,0.61,0.61,-0.84,-5.31,-0.2,271.5,71.94,-149.56
1613,26.539305,t,186.0,351.0,144.0,66.0,131.0,148.0,154.0,124.0,9.26,-1.78,-2.66,-78.31,-8.19,100.37,0.01,0.78,0.6,0.6,-0.62,-4.94,-0.93,271.56,70.87,-146.25
1614,26.55931,t,181.0,370.0,127.0,56.0,140.0,166.0,158.0,112.0,9.22,-1.91,-2.71,-41.13,-28.12,103.06,0.0,0.78,0.6,0.6,-1.13,-5.4,-3.18,270.75,69.31,-143.44
1615,26.580314,t,200.0,389.0,123.0,54.0,170.0,207.0,162.0,114.0,9.12,-2.21,-2.83,4.06,-37.06,109.37,0.01,-0.78,-0.59,-0.59,-1.3,-4.64,-3.56,268.62,67.5,-140.44
1616,26.600319,t,203.0,378.0,111.0,53.0,177.0,218.0,152.0,118.0,8.89,-2.77,-3.04,16.25,-60.44,126.75,0.02,-0.78,-0.59,-0.59,1.33,-2.28,-0.51,265.37,65.12,-137.56
1617,26.620323,t,188.0,338.0,105.0,50.0,178.0,218.0,144.0,116.0,8.79,-2.99,-3.13,10.38,-59.94,138.44,0.04,-0.78,-0.58,-0.58,1.85,1.43,0.79,261.81,62.38,-135.12
1618,26.640328,t,168.0,286.0,108.0,51.0,184.0,212.0,142.0,115.0,8.48,-3.59,-3.37,3.81,-49.81,124.25,0.06,-0.78,-0.57,-0.57,0.36,1.51,0.91,258.62,59.81,-133.12
1619,26.660333,t,148.0,226.0,101.0,50.0,176.0,194.0,131.0,106.0,8.37,-3.76,-3.43,18.62,-49.44,117.81,0.07,-0.78,-0.56,-0.56,-0.03,-0.03,1.32,255.44,57.44,-131.5
1620,26.680337,t,132.0,182.0,101.0,51.0,173.0,167.0,124.0,100.0,8.03,-4.32,-3.59,35.06,-52.0,121.94,0.09,-0.78,-0.56,-0.56,0.47,1.64,1.2,251.5,55.0,-129.62
1621,26.699342,t,126.0,157.0,100.0,52.0,174.0,156.0,113.0,102.0,7.78,-4.67,-3.69,14.69,-51.31,117.19,0.11,-0.78,-0.55,-0.55,1.19,2.11,1.16,247.87,52.5,-128.31
1622,26.719346,t,117.0,140.0,95.0,50.0,179.0,156.0,110.0,100.0,7.54,-4.95,-3.84,-11.94,-51.81,100.37,0.12,-0.78,-0.54,-0.54,0.51,1.42,1.08,245.12,50.25,-127.75
1623,26.74035,t,118.0,144.0,90.0,52.0,194.0,181.0,116.0,102.0,7.31,-5.12,-4.04,-19.25,-65.94,76.12,0.13,-0.78,-0.53,-0.53,2.49,1.95,-0.97,242.94,48.25,-128.25
1624,26.759355,t,119.0,153.0,85.0,51.0,208.0,211.0,123.0,105.0,7.1,-5.3,-4.17,7.44,-53.69,74.5,0.14,-0.78,-0.52,-0.52,-1.13,-0.16,-0.8,240.56,46.44,-128.19
1625,26.78036,t,134.0,178.0,97.0,52.0,231.0,224.0,132.0,110.0,6.85,-5.54,-4.28,50.19,-78.81,75.06,0.15,-0.78,-0.51,-0.51,0.3,-0.01,0.63,224.62,44.38,-127.62
1626,26.799364,t,137.0,189.0,96.0,51.0,250.0,236.0,137.0,118.0,6.6,-5.82,-4.32,81.56,-79.69,69.37,0.17,-0.79,-0.5,-0.5,1.2,0.26,1.79,224.62,42.25,-126.56
1627,26.819368,t,134.0,191.0,98.0,51.0,269.0,250.0,143.0,120.0,6.36,-6.11,-4.27,105.06,-64.25,64.87,0.2,-0.78,-0.49,-0.49,0.53,2.2,1.76,224.5,40.44,-124.87
1628,26.839373,t,133.0,191.0,98.0,48.0,286.0,263.0,146.0,130.0,6.13,-6.41,-4.16,109.06,-63.44,61.38,0.22,-0.78,-0.49,-0.49,0.26,3.73,1.65,224.19,38.75,-123.0
1629,26.859377,t,128.0,184.0,94.0,47.0,297.0,265.0,142.0,134.0,5.91,-6.65,-4.1,84.31,-65.81,54.19,0.24,-0.78,-0.48,-0.48,0.75,4.73,1.75,223.94,37.06,-121.62
1630,26.879382,t,134.0,189.0,97.0,48.0,315.0,275.0,148.0,142.0,5.72,-6.83,-4.08,49.94,-59.69,44.63,0.25,-0.78,-0.48,-0.48,0.7,4.96,1.89,223.75,35.69,-120.87
1631,26.899386,t,142.0,188.0,92.0,51.0,315.0,273.0,145.0,148.0,5.55,-6.94,-4.13,17.12,-54.81,33.06,0.26,-0.78,-0.47,-0.47,0.17,4.71,2.32,223.75,34.5,-120.75
1632,26.919391,t,144.0,188.0,90.0,52.0,319.0,280.0,145.0,155.0,5.42,-6.98,-4.23,-2.19,-50.06,22.37,0.27,-0.79,-0.46,-0.46,-0.19,4.26,2.11,223.69,33.56,-121.19
1633,26.939396,t,142.0,164.0,83.0,52.0,309.0,278.0,140.0,156.0,5.31,-7.0,-4.32,-5.87,-43.94,13.31,0.27,-0.79,-0.45,-0.45,-0.18,4.14,2.31,223.62,32.81,-121.69
1634,26.9594,t,142.0,160.0,81.0,50.0,302.0,274.0,136.0,154.0,5.24,-7.01,-4.4,-2.5,-37.88,2.62,0.27,-0.79,-0.45,-0.45,-0.17,3.29,2.09,223.37,32.31,-122.12
1635,26.979405,t,146.0,166.0,77.0,52.0,303.0,277.0,138.0,162.0,5.21,-7.01,-4.45,8.5,-30.0,-10.13,0.28,-0.79,-0.44,-0.44,-0.16,2.87,1.49,222.87,32.06,-122.37
1636,26.999417,t,137.0,160.0,75.0,51.0,292.0,270.0,138.0,159.0,5.22,-6.99,-4.45,18.44,-20.69,-24.62,0.28,-0.8,-0.44,-0.44,-0.65,2.8,1.9,222.12,32.19,-122.44
1637,27.019422,t,130.0,159.0,75.0,50.0,285.0,268.0,138.0,154.0,5.27,-6.96,-4.44,16.25,-17.25,-32.31,0.28,-0.8,-0.44,-0.44,-0.65,2.69,1.33,221.19,32.56,-122.56
1638,27.040426,t,120.0,161.0,76.0,50.0,287.0,274.0,140.0,154.0,5.37,-6.88,-4.45,2.12,-6.75,-49.88,0.28,-0.8,-0.44,-0.44,-0.35,1.95,-1.2,220.19,33.19,-122.87
1639,27.059431,t,117.0,172.0,70.0,48.0,292.0,282.0,136.0,154.0,5.51,-6.78,-4.45,-3.94,5.87,-58.06,0.27,-0.8,-0.45,-0.45,0.28,-1.41,-1.58,219.06,34.19,-123.25
1640,27.079435,t,132.0,189.0,75.0,44.0,291.0,290.0,135.0,138.0,5.64,-6.67,-4.44,0.69,-0.62,-54.31,0.27,-0.81,-0.45,-0.45,2.41,-1.49,0.37,218.0,35.13,-123.69
1641,27.099439,t,135.0,191.0,73.0,44.0,284.0,291.0,142.0,110.0,5.74,-6.59,-4.44,13.56,-17.87,-51.63,0.27,-0.81,-0.45,-0.45,4.69,1.76,-1.69,216.75,35.81,-123.94
1642,27.120444,t,131.0,203.0,76.0,44.0,270.0,294.0,149.0,109.0,5.84,-6.47,-4.47,4.37,-25.31,-68.37,0.26,-0.81,-0.45,-0.45,7.74,-2.02,0.64,215.19,36.56,-124.56
1643,27.139448,t,149.0,206.0,76.0,44.0,245.0,271.0,146.0,110.0,5.95,-6.26,-4.62,-54.31,-24.56,-64.75,0.25,-0.82,-0.45,-0.45,7.38,-4.29,1.86,214.06,37.38,-126.44
1644,27.160453,t,160.0,198.0,93.0,43.0,219.0,258.0,145.0,106.0,6.07,-6.15,-4.62,17.56,7.0,-53.94,0.25,-0.82,-0.45,-0.45,2.22,2.17,0.34,212.87,38.25,-126.87
1645,27.179457,t,165.0,202.0,102.0,42.0,202.0,254.0,143.0,104.0,6.23,-6.05,-4.54,21.94,14.19,-71.06,0.25,-0.82,-0.46,-0.46,2.67,3.6,1.89,211.5,39.44,-126.81
1646,27.199462,t,173.0,218.0,111.0,44.0,206.0,268.0,148.0,106.0,6.43,-5.86,-4.51,-12.13,19.75,-86.81,0.24,-0.83,-0.46,-0.46,3.53,2.47,-0.13,210.06,40.94,-127.56
1647,27.220467,t,182.0,218.0,117.0,44.0,199.0,254.0,150.0,111.0,6.65,-5.62,-4.5,-27.94,28.25,-91.44,0.23,-0.83,-0.47,-0.47,3.91,0.24,0.42,208.69,42.69,-128.69
1648,27.240471,t,185.0,218.0,134.0,44.0,190.0,253.0,151.0,116.0,6.87,-5.38,-4.46,-17.06,35.31,-85.69,0.22,-0.83,-0.48,-0.48,2.28,-0.31,0.22,207.37,44.44,-129.62
