index,time,type,FSR1,FSR2,FSR3,FSR4,FSR5,FSR6,FSR7,FSR8,GravX,GravY,GravZ,GyroX,GyroY,GyroZ,QuatW,QuatX,QuatY,QuatZ,LiAccX,LiAccY,LiAccZ,GyroCal,AccelCal,MagCal
335,1.50434,t,242,257,186,62,204,229,296,231,9.76,0.28,0.81,45.81,32.81,3.5,0.56,-0.42,-0.48,-0.48,1.16,-0.59,2.77,3.0,3.0,2.0
336,1.50834,t,243,255,180,63,206,230,295,230,9.76,0.28,0.87,50.06,37.0,4.19,0.57,-0.42,-0.47,-0.47,1.45,-0.88,2.81,3.0,3.0,2.0
337,1.513342,t,242,252,179,63,200,230,286,223,9.75,0.28,0.93,52.38,38.88,6.62,0.57,-0.41,-0.47,-0.47,0.92,-2.34,2.03,3.0,3.0,2.0
338,1.517342,t,238,247,178,62,199,225,285,220,9.75,0.27,1.0,60.25,37.63,16.37,0.58,-0.41,-0.47,-0.47,0.8,-3.09,1.64,3.0,3.0,2.0
339,1.523344,t,230,236,178,62,200,218,278,227,9.73,0.19,1.16,77.75,31.06,28.25,0.59,-0.39,-0.46,-0.46,0.48,-3.96,1.08,3.0,3.0,2.0
340,1.527345,t,226,230,175,63,196,216,276,231,9.73,0.16,1.21,100.37,29.87,37.13,0.6,-0.39,-0.45,-0.45,0.17,-4.24,0.22,3.0,3.0,2.0
341,1.532346,t,221,216,173,62,189,213,272,233,9.71,0.07,1.3,113.5,30.0,40.5,0.61,-0.38,-0.44,-0.44,0.06,-4.11,-0.15,3.0,3.0,2.0
342,1.536347,t,222,210,177,63,195,220,270,237,9.71,0.03,1.35,127.81,29.37,44.25,0.62,-0.38,-0.43,-0.43,-0.07,-3.97,-0.51,3.0,3.0,2.0
343,1.541348,t,224,202,176,66,191,217,264,243,9.69,-0.06,1.44,153.81,24.5,52.13,0.64,-0.36,-0.41,-0.41,-0.55,-2.84,-1.55,3.0,3.0,2.0
344,1.545349,t,223,204,176,65,191,215,265,244,9.69,-0.11,1.48,160.5,21.56,55.13,0.65,-0.35,-0.4,-0.4,-0.03,-1.53,-2.1,3.0,3.0,2.0
345,1.55035,t,222,205,175,66,190,210,264,242,9.68,-0.16,1.51,163.25,18.25,57.13,0.66,-0.34,-0.39,-0.39,1.0,0.0,-2.0,3.0,3.0,2.0
346,1.554351,t,224,210,176,66,190,211,265,248,9.68,-0.22,1.54,161.12,20.44,56.75,0.66,-0.33,-0.38,-0.38,1.26,0.72,-1.8,3.0,3.0,2.0
347,1.558352,t,220,216,188,66,196,211,263,242,9.65,-0.37,1.69,160.19,26.19,58.44,0.68,-0.32,-0.35,-0.35,1.33,2.3,-0.43,3.0,3.0,2.0
348,1.563353,t,217,211,187,66,194,207,259,239,9.64,-0.42,1.74,157.31,28.31,59.0,0.69,-0.31,-0.34,-0.34,1.31,2.45,0.09,3.0,3.0,2.0
349,1.567354,t,216,216,190,68,195,208,259,240,9.62,-0.47,1.8,150.94,29.56,58.75,0.69,-0.31,-0.33,-0.33,1.18,2.42,0.49,3.0,3.0,2.0
350,1.572355,t,216,220,214,78,208,226,276,243,9.57,-0.63,2.0,136.56,33.25,61.38,0.71,-0.29,-0.31,-0.31,0.94,2.1,-0.28,3.0,3.0,2.0
351,1.577356,t,214,214,211,77,200,214,268,234,9.55,-0.68,2.08,140.56,39.63,60.75,0.72,-0.28,-0.3,-0.3,0.44,2.09,-0.57,3.0,3.0,2.0
352,1.581357,t,214,206,212,78,202,216,265,234,9.53,-0.72,2.17,138.69,44.06,56.75,0.73,-0.27,-0.29,-0.29,0.25,2.0,-0.57,3.0,3.0,2.0
353,1.586358,t,210,210,212,79,201,217,266,231,9.5,-0.76,2.26,125.12,45.75,52.5,0.74,-0.26,-0.27,-0.27,0.04,2.1,-1.04,3.0,3.0,2.0
354,1.590359,t,200,203,208,79,200,211,261,230,9.43,-0.86,2.51,93.19,40.94,40.94,0.75,-0.25,-0.26,-0.26,-0.14,2.05,-1.3,3.0,3.0,2.0
355,1.59536,t,190,210,210,80,201,209,266,239,9.41,-0.88,2.59,90.81,40.25,39.25,0.75,-0.25,-0.25,-0.25,-0.25,2.28,-1.14,3.0,3.0,2.0
356,1.599361,t,176,212,214,84,208,212,276,239,9.39,-0.9,2.66,88.25,38.06,38.38,0.76,-0.24,-0.25,-0.25,-0.37,1.89,-1.17,3.0,3.0,2.0
357,1.604362,t,164,212,210,83,202,205,275,243,9.37,-0.92,2.74,86.81,36.0,36.94,0.77,-0.23,-0.23,-0.23,-1.04,1.0,-1.12,3.0,3.0,2.0
358,1.608363,t,148,216,212,84,201,207,279,242,9.3,-0.96,2.92,89.56,26.37,32.44,0.77,-0.22,-0.22,-0.22,-1.08,0.1,-1.28,3.0,3.0,2.0
359,1.613364,t,142,219,212,85,202,208,283,244,9.29,-0.96,2.98,95.0,22.75,30.5,0.78,-0.22,-0.22,-0.22,-1.09,-0.19,-1.32,3.0,3.0,2.0
360,1.617365,t,135,221,214,88,203,210,286,245,9.27,-0.95,3.02,101.12,19.44,28.56,0.78,-0.21,-0.21,-0.21,-1.05,-0.5,-1.3,3.0,3.0,2.0
361,1.622366,t,117,234,213,94,210,224,304,255,9.25,-0.92,3.11,111.06,13.19,26.37,0.79,-0.19,-0.19,-0.19,-1.01,-0.27,-1.2,3.0,3.0,2.0
362,1.626367,t,115,238,206,89,200,214,295,250,9.24,-0.9,3.14,111.87,9.5,23.81,0.79,-0.18,-0.18,-0.18,-0.97,0.69,-0.93,3.0,3.0,2.0
363,1.631369,t,114,239,202,86,202,217,294,245,9.22,-0.85,3.2,110.06,8.0,21.94,0.8,-0.18,-0.18,-0.18,-1.01,1.07,-0.74,3.0,3.0,3.0
364,1.635369,t,123,248,200,85,202,219,295,242,9.22,-0.83,3.23,106.56,5.0,20.19,0.8,-0.17,-0.16,-0.16,-1.14,2.14,-0.46,3.0,3.0,3.0
365,1.64037,t,126,250,202,85,210,234,310,247,9.21,-0.8,3.26,95.94,-0.88,16.37,0.8,-0.16,-0.16,-0.16,-1.1,2.47,-0.49,3.0,3.0,3.0
366,1.644371,t,139,261,195,80,209,234,316,239,9.21,-0.74,3.26,87.94,-3.19,14.13,0.8,-0.15,-0.15,-0.15,-1.15,2.95,-0.52,3.0,3.0,3.0
367,1.649372,t,144,251,191,77,201,222,296,215,9.21,-0.69,3.26,72.75,-6.25,8.19,0.8,-0.14,-0.15,-0.15,-0.9,3.05,-0.21,3.0,3.0,3.0
368,1.653373,t,143,245,188,75,197,215,296,207,9.22,-0.66,3.26,66.44,-8.44,4.31,0.8,-0.14,-0.14,-0.14,-0.44,2.88,0.13,3.0,3.0,3.0
369,1.658374,t,142,250,191,78,208,232,319,214,9.23,-0.59,3.23,61.75,-13.69,-2.81,0.8,-0.13,-0.13,-0.13,-0.34,2.87,0.29,3.0,3.0,3.0
370,1.662375,t,145,254,187,77,199,219,314,206,9.24,-0.54,3.21,59.5,-14.44,-7.75,0.8,-0.12,-0.13,-0.13,-0.23,2.6,0.87,3.0,3.0,3.0
371,1.666376,t,147,257,187,77,199,218,316,198,9.25,-0.5,3.2,59.5,-14.44,-7.75,0.8,-0.12,-0.13,-0.13,-0.23,2.6,0.87,3.0,3.0,3.0
372,1.671377,t,145,262,191,78,203,226,325,197,9.26,-0.45,3.18,55.0,-13.69,-8.38,0.8,-0.12,-0.12,-0.12,-0.09,1.76,0.93,3.0,3.0,3.0
373,1.676378,t,142,269,196,80,206,232,334,187,9.28,-0.35,3.13,41.5,-12.06,-2.0,0.8,-0.11,-0.12,-0.12,-0.12,1.67,1.03,3.0,3.0,3.0
374,1.680379,t,146,269,196,83,205,232,340,187,9.29,-0.34,3.11,36.25,-11.81,1.5,0.8,-0.11,-0.12,-0.12,0.0,1.48,1.75,3.0,3.0,3.0
375,1.68438,t,147,272,194,83,202,234,337,184,9.29,-0.33,3.09,21.5,-12.88,6.62,0.8,-0.1,-0.12,-0.12,-0.03,1.32,1.97,3.0,3.0,3.0
376,1.689382,t,149,276,191,81,198,231,349,185,9.31,-0.34,3.03,9.63,-13.56,9.81,0.8,-0.1,-0.11,-0.11,0.0,0.39,1.51,3.0,3.0,3.0
377,1.693382,t,150,278,201,82,199,232,358,186,9.32,-0.36,3.01,6.87,-11.19,11.5,0.8,-0.1,-0.11,-0.11,-0.03,0.02,0.61,3.0,3.0,3.0
378,1.698383,t,152,279,202,81,197,233,362,189,9.32,-0.38,3.0,5.31,-7.0,12.94,0.8,-0.1,-0.11,-0.11,-0.31,0.06,0.36,3.0,3.0,3.0
379,1.702384,t,153,282,210,86,202,244,390,195,9.32,-0.4,3.0,4.0,-3.87,14.88,0.8,-0.11,-0.11,-0.11,-0.65,0.14,0.1,3.0,3.0,3.0
380,1.706385,t,164,296,218,81,196,249,410,211,9.33,-0.49,2.97,5.12,-10.75,21.06,0.8,-0.11,-0.11,-0.11,-2.29,0.17,-0.58,3.0,3.0,3.0
381,1.711386,t,163,299,224,84,201,251,401,228,9.34,-0.52,2.94,5.69,-23.0,19.75,0.8,-0.1,-0.1,-0.1,-1.87,-0.11,-0.47,3.0,3.0,3.0
382,1.715387,t,162,298,229,84,205,254,416,237,9.35,-0.54,2.88,1.37,-36.31,16.06,0.8,-0.1,-0.1,-0.1,-0.92,-0.1,-0.49,3.0,3.0,3.0
383,1.720388,t,153,305,233,88,212,266,446,243,9.38,-0.56,2.8,-12.13,-62.06,8.88,0.79,-0.11,-0.09,-0.09,6.38,-0.14,-0.97,3.0,3.0,3.0
384,1.724389,t,118,326,255,90,233,278,500,256,9.45,-0.62,2.51,19.87,-58.38,13.94,0.79,-0.11,-0.09,-0.09,6.47,-4.13,2.18,3.0,3.0,3.0
385,1.72939,t,120,318,271,91,240,286,500,268,9.47,-0.62,2.44,71.44,-44.88,20.31,0.79,-0.1,-0.08,-0.08,6.16,-5.59,4.6,3.0,3.0,3.0
386,1.733391,t,127,312,272,92,236,284,507,275,9.48,-0.62,2.42,112.37,-18.87,29.75,0.79,-0.1,-0.07,-0.07,5.02,-5.33,5.49,3.0,3.0,3.0
387,1.737393,t,178,308,259,94,219,292,511,294,9.45,-0.68,2.49,77.56,18.06,45.81,0.79,-0.08,-0.05,-0.05,-4.74,6.22,-2.92,3.0,3.0,3.0
388,1.742393,t,182,318,257,96,221,305,511,315,9.45,-0.74,2.51,-28.31,-8.5,32.88,0.79,-0.09,-0.05,-0.05,-5.2,7.33,-5.13,3.0,3.0,3.0
389,1.746394,t,180,319,263,96,228,309,511,325,9.46,-0.86,2.43,-49.69,-33.0,22.25,0.79,-0.09,-0.05,-0.05,-4.81,7.08,-6.69,3.0,3.0,3.0
390,1.751396,t,179,319,272,97,244,312,511,331,9.48,-0.9,2.33,-42.0,-54.94,14.31,0.79,-0.1,-0.05,-0.05,-0.94,1.72,-1.99,3.0,3.0,3.0
391,1.755396,t,179,313,281,97,246,318,511,336,9.52,-0.97,2.11,-38.13,-64.06,15.75,0.78,-0.1,-0.05,-0.05,2.15,-0.47,-0.41,3.0,3.0,3.0
392,1.760397,t,176,312,276,96,248,319,511,349,9.54,-1.03,2.01,-49.63,-59.44,21.69,0.77,-0.11,-0.05,-0.05,2.45,-1.93,0.52,3.0,3.0,3.0
393,1.764398,t,171,313,273,99,254,322,511,358,9.55,-1.09,1.91,-58.69,-49.75,21.37,0.77,-0.12,-0.05,-0.05,0.15,-1.86,-1.61,3.0,3.0,3.0
394,1.7694,t,148,314,279,104,274,352,511,397,9.59,-1.21,1.64,-18.56,-47.69,11.63,0.76,-0.12,-0.05,-0.05,-0.68,-0.92,-2.5,3.0,3.0,3.0
395,1.774401,t,140,317,285,104,270,353,511,424,9.6,-1.22,1.57,4.12,-47.0,7.37,0.76,-0.12,-0.05,-0.05,-0.69,-0.97,-1.95,3.0,3.0,3.0
396,1.778402,t,135,313,279,99,258,330,511,399,9.61,-1.22,1.49,22.06,-46.5,5.31,0.76,-0.12,-0.05,-0.05,-0.54,-1.08,-1.24,3.0,3.0,3.0
397,1.783403,t,127,316,281,100,260,334,511,419,9.64,-1.25,1.29,20.19,-42.38,11.63,0.75,-0.12,-0.04,-0.04,0.15,-0.55,0.37,3.0,3.0,3.0
398,1.787404,t,125,322,278,100,260,334,511,419,9.64,-1.25,1.29,20.19,-42.38,11.63,0.75,-0.12,-0.04,-0.04,0.15,-0.55,0.37,3.0,3.0,3.0
399,1.792405,t,136,326,277,102,264,340,511,399,9.65,-1.29,1.15,-4.37,-40.56,13.75,0.74,-0.12,-0.03,-0.03,-0.06,0.07,0.32,3.0,3.0,3.0
400,1.796406,t,146,319,272,101,263,335,511,409,9.66,-1.34,1.01,-24.56,-40.06,10.88,0.74,-0.12,-0.03,-0.03,-0.22,0.73,0.35,3.0,3.0,3.0
401,1.801407,t,151,319,268,102,263,337,511,406,9.66,-1.36,0.94,-31.94,-38.0,8.75,0.74,-0.12,-0.03,-0.03,-0.21,0.79,0.3,3.0,3.0,3.0
402,1.805408,t,159,319,268,103,264,339,511,409,9.66,-1.37,0.87,-39.13,-36.88,6.06,0.74,-0.12,-0.03,-0.03,-0.49,1.2,0.67,3.0,3.0,3.0
403,1.815411,t,158,316,262,103,260,341,511,401,9.67,-1.4,0.66,-53.63,-33.75,1.12,0.73,-0.13,-0.04,-0.04,-0.24,0.27,0.58,3.0,3.0,3.0
404,1.829426,t,169,299,257,102,258,337,511,411,9.68,-1.41,0.59,-54.0,-33.94,1.44,0.73,-0.13,-0.03,-0.03,-0.24,-0.43,-0.2,3.0,3.0,3.0
405,1.84443,t,172,295,253,102,257,341,511,419,9.68,-1.42,0.52,-51.38,-33.81,1.87,0.72,-0.14,-0.04,-0.04,-0.37,-0.63,-0.51,3.0,3.0,3.0
406,1.859433,t,177,289,252,101,257,336,511,420,9.69,-1.43,0.45,-45.31,-34.19,1.25,0.72,-0.14,-0.04,-0.04,-0.54,-0.7,-0.67,3.0,3.0,3.0
407,1.875437,t,187,290,246,100,254,336,511,426,9.69,-1.44,0.32,-41.88,-33.75,0.19,0.72,-0.14,-0.04,-0.04,-0.49,-0.79,-0.7,3.0,3.0,3.0
408,1.88944,t,189,284,241,100,253,326,511,412,9.69,-1.44,0.26,-36.56,-33.38,-0.56,0.72,-0.14,-0.04,-0.04,-0.52,-0.75,-0.48,3.0,3.0,3.0
409,1.905444,t,198,275,242,96,254,324,511,414,9.7,-1.43,0.07,-26.12,-31.94,-1.31,0.71,-0.15,-0.05,-0.05,-0.28,-0.21,0.32,3.0,3.0,3.0
410,1.92046,t,206,271,239,95,257,322,511,414,9.7,-1.43,0.01,-22.94,-31.5,-1.0,0.71,-0.15,-0.05,-0.05,-0.34,-0.19,0.44,3.0,3.0,3.0
411,1.934463,t,207,270,235,95,257,316,511,394,9.7,-1.43,-0.04,-24.12,-32.13,-0.88,0.7,-0.15,-0.04,-0.04,-0.23,-0.25,0.56,3.0,3.0,3.0
412,1.950478,t,207,268,230,96,257,313,511,407,9.7,-1.43,-0.1,-25.69,-32.06,-0.62,0.7,-0.15,-0.05,-0.05,-0.17,-0.63,0.69,3.0,3.0,3.0
413,1.964494,t,210,262,222,93,254,308,511,403,9.69,-1.43,-0.22,-26.87,-32.06,0.0,0.7,-0.15,-0.05,-0.05,-0.16,-0.6,0.68,3.0,3.0,3.0
414,1.979498,t,213,254,216,91,258,298,511,401,9.69,-1.43,-0.28,-28.25,-32.19,0.81,0.7,-0.15,-0.05,-0.05,-0.16,-0.38,0.51,3.0,3.0,3.0
415,1.994501,t,213,254,216,91,258,298,511,401,9.69,-1.43,-0.28,-28.25,-32.19,0.81,0.7,-0.15,-0.05,-0.05,-0.16,-0.38,0.51,3.0,3.0,3.0
416,2.009504,t,197,212,178,73,232,270,490,351,9.68,-1.42,-0.52,-29.37,-31.56,-2.19,0.69,-0.16,-0.05,-0.05,-0.4,0.31,1.03,3.0,3.0,3.0
417,2.024508,t,218,232,198,85,261,302,511,413,9.68,-1.4,-0.58,-29.44,-31.94,-4.44,0.68,-0.16,-0.05,-0.05,-0.14,-0.14,1.09,3.0,3.0,3.0
418,2.039511,t,229,237,198,86,254,286,508,385,9.68,-1.39,-0.64,-30.81,-31.12,-5.62,0.68,-0.16,-0.05,-0.05,-0.14,-0.38,1.03,3.0,3.0,3.0
419,2.054515,t,232,225,194,86,250,284,506,379,9.67,-1.36,-0.8,-28.31,-27.25,-4.19,0.68,-0.16,-0.05,-0.05,0.06,-0.6,1.32,3.0,3.0,3.0
420,2.069518,t,243,230,197,89,258,288,504,382,9.67,-1.35,-0.85,-27.19,-24.44,-3.25,0.67,-0.16,-0.06,-0.06,0.02,-0.5,1.46,3.0,3.0,3.0
421,2.084521,t,248,224,191,88,251,286,511,368,9.67,-1.34,-0.89,-27.75,-21.56,-2.44,0.67,-0.16,-0.05,-0.05,0.04,-0.36,1.69,3.0,3.0,3.0
422,2.100525,t,260,221,189,88,255,287,486,376,9.66,-1.33,-0.93,-31.94,-16.44,-1.62,0.67,-0.16,-0.06,-0.06,-0.46,0.16,1.5,3.0,3.0,3.0
423,2.114529,t,262,209,186,87,255,286,472,368,9.66,-1.31,-1.0,-35.31,-14.38,0.0,0.67,-0.17,-0.06,-0.06,-0.07,0.54,1.54,3.0,3.0,3.0
424,2.129532,t,280,204,184,79,258,289,453,344,9.66,-1.3,-1.06,-38.75,-12.94,0.06,0.66,-0.17,-0.06,-0.06,0.01,0.71,1.8,3.0,3.0,3.0
425,2.144535,t,284,206,180,80,258,291,447,340,9.65,-1.29,-1.09,-43.31,-12.06,-0.81,0.66,-0.17,-0.07,-0.07,-0.36,0.77,1.81,3.0,3.0,3.0
426,2.159538,t,289,210,182,82,269,306,476,344,9.65,-1.27,-1.15,-50.88,-12.81,-2.37,0.66,-0.17,-0.07,-0.07,-0.41,0.65,1.54,3.0,3.0,3.0
427,2.174542,t,298,207,175,80,261,295,430,337,9.65,-1.25,-1.19,-60.38,-13.88,-4.69,0.66,-0.18,-0.07,-0.07,-0.01,0.39,0.5,3.0,3.0,3.0
428,2.189545,t,297,207,170,78,262,303,410,337,9.65,-1.22,-1.23,-68.62,-14.0,-7.37,0.66,-0.18,-0.08,-0.08,0.12,0.2,0.09,3.0,3.0,3.0
429,2.204549,t,305,206,171,77,261,298,408,338,9.65,-1.19,-1.26,-64.37,-10.75,-12.06,0.65,-0.18,-0.08,-0.08,-0.01,-0.43,0.3,3.0,3.0,3.0
430,2.220552,t,309,214,169,77,261,300,412,335,9.65,-1.09,-1.35,-52.69,-9.25,-14.13,0.65,-0.19,-0.09,-0.09,0.79,-1.71,1.4,3.0,3.0,3.0
431,2.235562,t,298,208,164,78,266,307,422,337,9.65,-1.05,-1.37,-52.0,-6.5,-14.5,0.65,-0.19,-0.09,-0.09,0.91,-2.2,1.45,3.0,3.0,3.0
432,2.249565,t,302,220,164,82,263,298,405,333,9.65,-1.01,-1.38,-51.19,-2.56,-14.69,0.65,-0.19,-0.1,-0.1,1.37,-3.25,0.96,3.0,3.0,3.0
433,2.264568,t,297,227,166,83,260,295,399,328,9.65,-0.94,-1.4,-46.69,-0.37,-14.63,0.65,-0.19,-0.1,-0.1,1.58,-3.38,1.34,3.0,3.0,3.0
434,2.279584,t,279,234,183,86,262,310,428,332,9.66,-0.88,-1.4,-25.37,6.44,-13.25,0.65,-0.19,-0.11,-0.11,2.43,-3.53,2.04,3.0,3.0,3.0
435,2.2946,t,286,248,191,90,264,309,408,342,9.66,-0.86,-1.39,23.69,10.25,-8.38,0.65,-0.19,-0.1,-0.1,2.3,-2.69,4.5,3.0,3.0,3.0
436,2.309603,t,289,258,191,86,249,286,370,316,9.67,-0.85,-1.34,30.5,14.31,-7.12,0.65,-0.18,-0.1,-0.1,2.8,-1.78,4.3,3.0,3.0,3.0
437,2.324607,t,295,278,201,87,246,293,364,306,9.68,-0.84,-1.3,-6.25,28.75,-12.0,0.65,-0.18,-0.11,-0.11,3.84,0.27,2.72,3.0,3.0,3.0
438,2.33961,t,291,298,204,86,236,276,343,299,9.7,-0.78,-1.2,-27.12,35.0,-15.38,0.65,-0.18,-0.11,-0.11,4.03,0.64,2.34,3.0,3.0,3.0
439,2.354652,t,288,312,216,86,233,267,333,284,9.71,-0.74,-1.13,-37.44,43.81,-18.56,0.66,-0.18,-0.12,-0.12,3.04,0.91,3.9,3.0,3.0,3.0
440,2.370656,t,274,319,226,90,228,243,334,288,9.73,-0.67,-0.95,-26.25,61.0,-20.12,0.66,-0.18,-0.12,-0.12,2.63,0.11,4.28,3.0,3.0,3.0
441,2.384659,t,266,310,234,91,223,230,342,278,9.75,-0.63,-0.83,-8.13,73.19,-20.37,0.67,-0.18,-0.12,-0.12,2.1,-0.81,4.21,3.0,3.0,3.0
442,2.399663,t,246,285,242,90,210,211,338,259,9.77,-0.57,-0.5,32.5,102.87,-18.19,0.68,-0.17,-0.13,-0.13,2.26,-2.22,2.9,3.0,3.0,3.0
443,2.414666,t,238,269,240,89,207,201,330,250,9.78,-0.55,-0.29,47.56,137.5,-11.06,0.69,-0.16,-0.13,-0.13,2.08,-1.43,0.77,3.0,3.0,3.0
444,2.42967,t,226,246,242,86,204,195,317,247,9.79,-0.53,-0.06,47.44,147.0,-6.75,0.7,-0.16,-0.12,-0.12,2.83,-0.33,-0.44,3.0,3.0,3.0
445,2.444719,t,219,233,234,81,199,191,315,244,9.78,-0.51,0.44,46.56,151.5,-3.31,0.71,-0.15,-0.12,-0.12,2.82,0.35,-0.98,3.0,3.0,3.0
446,2.459723,t,200,229,231,75,191,191,298,224,9.74,-0.49,0.95,40.63,146.56,-3.25,0.74,-0.14,-0.12,-0.12,3.46,2.0,-1.24,3.0,3.0,3.0
447,2.474726,t,185,226,230,75,186,190,288,200,9.72,-0.48,1.19,32.94,139.5,-5.06,0.75,-0.14,-0.12,-0.12,3.03,3.5,-1.4,3.0,3.0,3.0
448,2.48973,t,182,222,228,76,183,186,283,197,9.69,-0.47,1.42,24.0,134.06,-3.87,0.75,-0.13,-0.13,-0.13,0.85,1.87,-1.66,3.0,3.0,3.0
449,2.504733,t,180,218,227,80,178,187,277,182,9.62,-0.47,1.83,13.69,120.87,6.69,0.76,-0.13,-0.13,-0.13,0.85,1.87,-1.66,3.0,3.0,3.0
450,2.519736,t,165,228,226,80,171,189,263,163,9.54,-0.52,2.19,3.25,105.37,20.69,0.77,-0.13,-0.12,-0.12,0.0,-0.29,-2.01,3.0,3.0,3.0
451,2.53474,t,145,218,214,78,164,180,245,152,9.49,-0.57,2.36,-2.37,102.62,26.31,0.78,-0.13,-0.12,-0.12,-0.01,-1.23,-2.12,3.0,3.0,3.0
452,2.549743,t,146,241,216,79,169,181,233,153,9.4,-0.68,2.69,-3.19,106.31,36.19,0.79,-0.14,-0.12,-0.12,-0.33,-2.19,-1.79,3.0,3.0,3.0
453,2.564746,t,147,248,216,78,170,178,216,151,9.28,-0.79,3.04,5.44,107.75,37.63,0.8,-0.14,-0.12,-0.12,-0.72,-2.0,-1.68,3.0,3.0,3.0
454,2.57975,t,144,246,214,78,165,173,204,144,9.22,-0.84,3.21,18.25,106.12,37.81,0.81,-0.14,-0.12,-0.12,-1.32,-1.81,-1.91,3.0,3.0,3.0
455,2.594753,t,138,244,215,79,165,174,201,143,9.16,-0.88,3.38,35.0,103.0,37.31,0.81,-0.13,-0.11,-0.11,-1.48,-1.6,-1.99,3.0,3.0,3.0
456,2.609782,t,132,238,216,79,158,166,191,134,9.03,-0.92,3.69,83.19,82.06,34.69,0.83,-0.12,-0.1,-0.1,-2.0,-1.09,-2.76,3.0,3.0,3.0
457,2.624776,t,127,242,215,79,158,165,189,136,8.92,-0.91,3.96,94.56,73.62,33.81,0.83,-0.12,-0.09,-0.09,-2.01,-0.72,-3.08,3.0,3.0,3.0
458,2.639779,t,125,238,215,80,157,160,191,139,8.87,-0.89,4.08,103.37,65.75,31.75,0.84,-0.11,-0.09,-0.09,-2.03,-0.24,-3.35,3.0,3.0,3.0
459,2.654782,t,124,238,213,76,157,155,191,138,8.82,-0.86,4.18,108.62,59.19,29.5,0.84,-0.1,-0.08,-0.08,-2.09,0.08,-3.51,3.0,3.0,3.0
460,2.670786,t,113,235,202,72,154,148,191,136,8.74,-0.77,4.37,113.37,43.0,22.5,0.85,-0.08,-0.06,-0.06,-2.19,1.53,-3.77,3.0,3.0,3.0
461,2.68579,t,112,238,202,74,156,147,198,137,8.67,-0.66,4.52,111.25,38.38,21.0,0.85,-0.07,-0.05,-0.05,-2.21,2.24,-3.76,3.0,3.0,3.0
462,2.699792,t,114,240,200,77,158,149,199,137,8.64,-0.61,4.58,105.5,32.56,19.62,0.86,-0.07,-0.05,-0.05,-2.25,2.49,-3.7,3.0,3.0,3.0
463,2.714796,t,107,240,197,76,161,144,205,124,8.6,-0.52,4.66,85.81,20.19,17.87,0.86,-0.05,-0.04,-0.04,-2.27,2.75,-3.45,3.0,3.0,3.0
464,2.729799,t,107,237,186,75,159,144,207,124,8.59,-0.48,4.69,72.81,13.5,17.0,0.86,-0.04,-0.03,-0.03,-2.45,2.52,-2.95,3.0,3.0,3.0
465,2.744802,t,108,241,186,76,165,149,214,125,8.58,-0.45,4.71,45.25,-0.88,17.25,0.86,-0.04,-0.02,-0.02,-2.57,2.25,-2.86,3.0,3.0,3.0
466,2.759806,t,109,240,183,74,166,155,218,123,8.59,-0.45,4.7,34.5,-8.63,17.87,0.86,-0.04,-0.02,-0.02,-2.69,2.0,-2.76,3.0,3.0,3.0
467,2.774809,t,112,236,181,75,167,159,219,117,8.6,-0.45,4.67,26.75,-17.5,18.81,0.86,-0.04,-0.02,-0.02,-2.64,1.7,-2.47,3.0,3.0,3.0
468,2.789831,t,115,233,179,78,170,180,240,119,8.65,-0.48,4.58,14.13,-36.38,19.37,0.85,-0.04,-0.01,-0.01,-2.63,1.64,-1.94,3.0,3.0,3.0
469,2.804886,t,115,230,172,74,161,172,234,112,8.72,-0.53,4.43,-2.75,-53.81,17.0,0.85,-0.04,-0.01,-0.01,-2.23,1.49,-1.4,3.0,3.0,3.0
470,2.819889,t,114,232,168,73,162,177,241,118,8.77,-0.57,4.34,-10.38,-61.94,15.69,0.85,-0.04,-0.01,-0.01,-2.07,1.41,-1.12,3.0,3.0,3.0
471,2.834892,t,115,230,165,70,166,180,259,120,8.87,-0.63,4.12,-20.81,-75.31,10.44,0.84,-0.04,-0.01,-0.01,-1.16,1.15,-0.53,3.0,3.0,3.0
472,2.850896,t,117,230,163,70,171,182,261,122,8.93,-0.66,3.99,-22.12,-79.31,7.5,0.83,-0.05,-0.01,-0.01,-0.87,1.1,-0.25,3.0,3.0,3.0
473,2.864899,t,122,232,159,68,174,183,270,125,8.98,-0.68,3.86,-20.81,-83.37,4.06,0.83,-0.05,-0.01,-0.01,-0.18,0.71,0.46,3.0,3.0,3.0
474,2.879903,t,126,234,158,72,175,191,276,125,9.09,-0.72,3.6,-16.75,-83.69,3.06,0.82,-0.05,-0.01,-0.01,1.9,0.19,1.96,3.0,3.0,3.0
475,2.894906,t,127,236,163,74,178,200,292,122,9.14,-0.73,3.47,-10.75,-81.06,4.19,0.82,-0.05,-0.01,-0.01,1.9,0.19,1.96,3.0,3.0,3.0
476,2.90991,t,133,246,160,74,184,207,295,117,9.22,-0.75,3.25,6.81,-66.81,9.75,0.81,-0.05,-0.01,-0.01,4.17,-0.36,5.49,3.0,3.0,3.0
477,2.924952,t,129,249,160,74,183,214,300,113,9.24,-0.76,3.16,22.62,-36.88,13.06,0.81,-0.05,-0.0,-0.0,4.09,-0.47,6.5,3.0,3.0,3.0
478,2.939956,t,129,255,163,74,186,222,304,113,9.27,-0.78,3.08,32.0,-19.31,13.88,0.81,-0.05,-0.0,-0.0,3.66,-0.6,7.42,3.0,3.0,3.0
479,2.95498,t,126,261,166,76,189,214,306,111,9.27,-0.77,3.1,57.06,6.56,16.37,0.81,-0.04,0.01,0.01,1.7,-0.46,6.62,3.0,3.0,3.0
480,2.969984,t,127,251,165,74,180,206,304,110,9.26,-0.77,3.13,63.94,14.81,17.62,0.81,-0.04,0.02,0.02,1.26,-0.05,5.19,3.0,3.0,3.0
481,2.984987,t,125,249,174,74,169,204,304,112,9.24,-0.76,3.18,65.75,24.25,19.25,0.82,-0.03,0.02,0.02,-1.13,1.02,1.52,3.0,3.0,3.0
482,2.99999,t,126,250,179,76,169,204,312,115,9.22,-0.76,3.23,70.0,31.19,25.06,0.82,-0.03,0.03,0.03,-2.36,1.58,-0.65,3.0,3.0,3.0
483,3.014994,t,125,258,187,78,171,215,328,130,9.17,-0.78,3.38,58.38,17.94,29.56,0.82,-0.02,0.04,0.04,-2.53,1.83,-1.65,3.0,3.0,3.0
484,3.029996,t,122,257,188,81,171,221,344,154,9.16,-0.8,3.39,48.06,4.5,28.06,0.82,-0.02,0.04,0.04,-2.02,2.24,-3.15,3.0,3.0,3.0
485,3.045,t,120,265,201,88,182,234,371,182,9.16,-0.82,3.38,34.06,-10.06,25.37,0.82,-0.02,0.04,0.04,-1.5,3.01,-2.78,3.0,3.0,3.0
486,3.060022,t,105,302,229,93,208,262,431,202,9.23,-0.91,3.15,-27.25,-71.12,12.31,0.81,-0.02,0.05,0.05,4.98,-0.48,-1.84,3.0,3.0,3.0
487,3.075026,t,91,322,237,96,223,262,444,207,9.28,-0.94,3.0,-30.81,-93.44,5.44,0.81,-0.03,0.05,0.05,8.87,-3.29,-1.3,3.0,3.0,3.0
488,3.090029,t,82,319,250,90,235,265,469,213,9.33,-0.95,2.84,-15.44,-100.31,7.25,0.8,-0.03,0.05,0.05,11.59,-6.48,0.13,3.0,3.0,3.0
489,3.105032,t,93,300,252,87,233,265,474,228,9.37,-0.98,2.72,26.56,-77.69,20.69,0.8,-0.02,0.06,0.06,12.05,-8.4,1.67,3.0,3.0,3.0
490,3.120036,t,127,306,250,85,215,274,489,257,9.33,-1.01,2.83,107.06,44.06,40.13,0.8,-0.01,0.07,0.07,-4.3,7.63,0.53,3.0,3.0,3.0
491,3.135039,t,149,328,267,94,222,281,510,276,9.31,-1.03,2.89,63.56,29.25,34.25,0.8,-0.01,0.08,0.08,-7.95,9.88,-6.56,3.0,3.0,3.0
492,3.150042,t,132,343,284,98,233,294,511,282,9.3,-1.06,2.91,11.13,8.13,24.0,0.8,-0.01,0.08,0.08,-7.83,8.46,-9.1,3.0,3.0,3.0
493,3.165047,t,114,331,294,102,246,298,511,287,9.32,-1.12,2.82,-14.5,-40.75,9.44,0.8,-0.01,0.08,0.08,-4.98,4.33,-8.73,3.0,3.0,3.0
494,3.180049,t,90,319,299,101,254,302,511,295,9.35,-1.15,2.7,-11.81,-74.94,16.12,0.79,-0.01,0.08,0.08,1.65,0.27,0.57,3.0,3.0,3.0
495,3.195053,t,86,313,303,97,252,302,511,293,9.41,-1.29,2.41,-92.44,-74.44,26.75,0.79,-0.02,0.08,0.08,4.47,-5.1,3.09,3.0,3.0,3.0
496,3.210057,t,96,313,298,97,252,303,511,313,9.43,-1.38,2.29,-113.56,-57.88,28.81,0.78,-0.04,0.07,0.07,1.22,-4.33,-1.73,3.0,3.0,3.0
497,3.22506,t,112,312,293,94,245,299,511,316,9.44,-1.46,2.19,-71.81,-32.0,16.12,0.78,-0.05,0.06,0.06,-0.31,-2.58,-2.84,3.0,3.0,3.0
498,3.240063,t,123,312,288,93,246,296,511,322,9.45,-1.54,2.07,-46.5,-27.62,7.44,0.78,-0.05,0.06,0.06,-1.47,-0.96,-3.83,3.0,3.0,3.0
499,3.255067,t,115,312,292,90,250,294,511,326,9.47,-1.55,1.94,-3.31,-40.75,-5.62,0.77,-0.05,0.06,0.06,-0.73,0.89,-1.09,3.0,3.0,3.0
500,3.27007,t,108,285,289,90,244,288,503,330,9.5,-1.53,1.86,14.75,-50.5,-9.63,0.77,-0.05,0.06,0.06,-0.03,0.19,-0.49,3.0,3.0,3.0
501,3.285073,t,112,288,290,90,241,288,511,325,9.53,-1.49,1.7,10.19,-51.0,-7.56,0.76,-0.05,0.06,0.06,0.23,-0.39,-0.66,3.0,3.0,3.0
502,3.300076,t,112,291,283,88,239,285,507,332,9.55,-1.48,1.62,2.31,-50.25,-4.69,0.76,-0.05,0.06,0.06,0.06,-0.21,-0.85,3.0,3.0,3.0
503,3.31508,t,111,277,249,76,220,266,454,310,9.58,-1.48,1.45,-16.25,-51.38,-1.94,0.75,-0.05,0.06,0.06,-0.29,0.24,-0.96,3.0,3.0,3.0
504,3.330083,t,131,302,267,83,235,282,494,330,9.59,-1.49,1.35,-25.06,-53.94,-1.75,0.75,-0.05,0.06,0.06,-0.38,1.36,-0.5,3.0,3.0,3.0
505,3.345087,t,138,304,265,85,235,281,506,323,9.61,-1.49,1.25,-34.19,-55.69,-2.37,0.75,-0.05,0.05,0.05,-0.26,1.63,0.25,3.0,3.0,3.0
506,3.36009,t,158,296,260,85,237,279,488,334,9.64,-1.49,0.95,-56.38,-50.75,-8.0,0.74,-0.06,0.05,0.05,-0.31,0.8,0.66,3.0,3.0,3.0
507,3.375093,t,159,290,255,85,234,270,499,334,9.65,-1.48,0.85,-61.06,-49.81,-9.56,0.74,-0.06,0.04,0.04,-0.18,0.31,0.69,3.0,3.0,3.0
508,3.390097,t,161,294,260,90,246,282,511,342,9.66,-1.47,0.75,-63.19,-49.44,-10.94,0.73,-0.07,0.04,0.04,0.04,-0.25,0.71,3.0,3.0,3.0
509,3.4051,t,165,290,254,86,238,274,494,333,9.67,-1.46,0.66,-60.69,-48.44,-11.25,0.73,-0.07,0.03,0.03,0.07,-0.78,0.65,3.0,3.0,3.0
510,3.420104,t,180,272,243,85,232,267,501,332,9.69,-1.43,0.41,-34.13,-37.63,-7.31,0.72,-0.08,0.03,0.03,-0.51,-1.02,0.9,3.0,3.0,3.0
511,3.435107,t,185,270,241,84,233,270,507,334,9.69,-1.42,0.35,-27.75,-33.81,-5.94,0.72,-0.08,0.02,0.02,-0.57,-0.47,1.05,3.0,3.0,3.0
512,3.45011,t,196,272,249,87,242,281,511,338,9.69,-1.41,0.29,-25.06,-31.06,-5.75,0.72,-0.08,0.02,0.02,-0.46,0.18,0.77,3.0,3.0,3.0
513,3.465126,t,202,261,241,84,234,266,501,334,9.7,-1.39,0.19,-29.19,-24.94,-6.31,0.71,-0.08,0.02,0.02,-0.65,0.32,0.73,3.0,3.0,3.0
514,3.480136,t,209,241,236,86,237,264,494,331,9.7,-1.37,0.09,-41.94,-24.12,-5.44,0.71,-0.09,0.01,0.01,-0.99,0.24,0.83,3.0,3.0,3.0
515,3.495139,t,221,237,230,86,234,269,490,326,9.7,-1.37,0.04,-49.31,-26.37,-4.5,0.71,-0.09,0.01,0.01,-0.87,0.18,0.78,3.0,3.0,3.0
516,3.510142,t,236,237,229,87,239,276,478,325,9.71,-1.36,-0.01,-62.75,-28.69,-3.87,0.7,-0.1,0.0,0.0,-0.57,0.22,0.23,3.0,3.0,3.0
517,3.525146,t,251,225,222,83,236,267,470,329,9.71,-1.35,-0.14,-66.31,-28.87,-4.37,0.7,-0.1,-0.0,-0.0,-0.27,0.26,-0.02,3.0,3.0,3.0
518,3.540163,t,262,229,227,87,249,291,511,346,9.71,-1.33,-0.21,-66.06,-29.81,-5.19,0.7,-0.1,-0.0,-0.0,0.04,0.26,-0.2,3.0,3.0,3.0
519,3.555167,t,279,228,210,84,236,273,429,335,9.71,-1.31,-0.33,-48.19,-30.12,-8.31,0.69,-0.11,-0.02,-0.02,0.46,0.19,0.29,3.0,3.0,3.0
520,3.57017,t,284,226,205,85,235,274,425,336,9.71,-1.27,-0.45,-41.69,-29.87,-8.56,0.69,-0.11,-0.02,-0.02,0.13,0.23,0.87,3.0,3.0,3.0
521,3.585187,t,288,224,203,84,232,275,411,335,9.71,-1.25,-0.51,-37.63,-30.62,-8.56,0.69,-0.11,-0.02,-0.02,-0.42,0.28,1.89,3.0,3.0,3.0
522,3.60019,t,291,212,198,83,228,276,406,334,9.71,-1.24,-0.58,-37.94,-32.63,-7.87,0.68,-0.12,-0.03,-0.03,-0.28,0.15,2.15,3.0,3.0,3.0
523,3.615193,t,294,213,202,84,234,285,414,325,9.7,-1.22,-0.77,-31.31,-33.44,-8.19,0.68,-0.12,-0.03,-0.03,0.23,-0.71,2.03,3.0,3.0,3.0
524,3.630197,t,291,206,194,81,238,281,388,334,9.7,-1.17,-0.82,-24.62,-31.5,-8.19,0.68,-0.12,-0.03,-0.03,0.12,-0.9,2.23,3.0,3.0,3.0
525,3.6452,t,286,203,199,86,249,294,395,343,9.69,-1.15,-0.88,-24.37,-28.62,-7.81,0.67,-0.12,-0.03,-0.03,-0.13,-1.15,2.37,3.0,3.0,3.0
526,3.660204,t,282,197,189,82,242,281,370,342,9.69,-1.13,-0.93,-41.63,-23.62,-7.31,0.67,-0.13,-0.04,-0.04,-0.68,-2.25,1.87,3.0,3.0,3.0
527,3.675207,t,278,202,190,85,254,292,380,355,9.69,-1.09,-1.02,-52.0,-20.25,-8.31,0.67,-0.13,-0.04,-0.04,-0.38,-2.44,1.34,3.0,3.0,3.0
528,3.69021,t,274,209,186,81,241,278,357,344,9.69,-1.06,-1.05,-52.38,-14.69,-10.69,0.67,-0.13,-0.04,-0.04,0.17,-2.54,1.31,3.0,3.0,3.0
529,3.705214,t,274,230,198,81,258,300,370,353,9.69,-1.01,-1.07,-13.06,10.0,-14.56,0.67,-0.13,-0.05,-0.05,2.76,-2.02,4.15,3.0,3.0,3.0
530,3.721224,t,262,275,208,84,260,295,362,337,9.7,-0.95,-1.03,-14.69,18.44,-14.31,0.67,-0.13,-0.05,-0.05,4.29,-2.08,4.53,3.0,3.0,3.0
531,3.735239,t,260,290,203,78,243,274,340,322,9.71,-0.93,-0.98,-26.56,31.06,-12.63,0.67,-0.13,-0.06,-0.06,6.62,-1.96,3.97,3.0,3.0,3.0
532,3.750242,t,262,306,210,78,232,266,328,308,9.72,-0.91,-0.91,-40.88,45.81,-7.87,0.67,-0.14,-0.06,-0.06,7.26,-1.33,3.32,3.0,3.0,3.0
533,3.765246,t,252,319,226,77,214,238,289,274,9.74,-0.91,-0.51,-18.31,101.31,7.5,0.68,-0.14,-0.07,-0.07,2.51,3.88,4.42,3.0,3.0,3.0
534,3.780265,t,260,318,231,75,214,236,278,267,9.75,-0.92,-0.31,-8.56,118.12,6.19,0.69,-0.14,-0.07,-0.07,1.43,4.6,4.52,3.0,3.0,3.0
535,3.795268,t,261,314,233,74,209,232,267,254,9.76,-0.93,-0.09,-13.56,132.19,4.25,0.7,-0.14,-0.07,-0.07,1.01,4.79,4.05,3.0,3.0,3.0
536,3.810271,t,268,306,231,68,202,233,262,246,9.76,-0.94,0.13,-30.75,141.69,3.25,0.71,-0.14,-0.07,-0.07,1.18,4.63,3.13,3.0,3.0,3.0
537,3.825275,t,263,267,212,63,191,231,253,231,9.72,-0.97,0.82,-79.37,139.81,1.44,0.73,-0.15,-0.09,-0.09,4.95,2.89,-1.15,3.0,3.0,3.0
538,3.840278,t,263,267,212,63,191,231,253,231,9.72,-0.97,0.82,-79.37,139.81,1.44,0.73,-0.15,-0.09,-0.09,4.95,2.89,-1.15,3.0,3.0,3.0
539,3.855282,t,251,228,218,69,200,238,254,243,9.67,-1.01,1.22,-87.0,124.31,5.25,0.74,-0.16,-0.1,-0.1,4.77,3.02,-2.55,3.0,3.0,3.0
540,3.870285,t,228,207,202,66,186,220,238,232,9.64,-1.04,1.4,-87.31,116.06,9.31,0.75,-0.17,-0.11,-0.11,3.68,2.63,-3.04,3.0,3.0,3.0
541,3.885288,t,229,200,206,67,181,202,220,214,9.58,-1.12,1.71,-53.69,92.12,13.63,0.76,-0.17,-0.12,-0.12,1.63,-0.94,-3.99,3.0,3.0,3.0
542,3.900298,t,228,198,210,67,180,199,214,213,9.52,-1.2,1.99,-23.0,89.44,16.87,0.77,-0.17,-0.12,-0.12,0.67,-0.84,-3.71,3.0,3.0,3.0
543,3.915314,t,220,191,214,68,176,197,206,202,9.48,-1.22,2.14,2.06,89.94,16.19,0.77,-0.17,-0.12,-0.12,0.19,-0.64,-3.25,3.0,3.0,3.0
544,3.930317,t,211,189,212,70,172,191,203,191,9.45,-1.24,2.3,17.37,91.94,14.25,0.78,-0.17,-0.12,-0.12,-1.06,-0.36,-2.79,3.0,3.0,3.0
545,3.94532,t,200,188,211,72,168,174,200,177,9.36,-1.24,2.61,38.63,90.69,7.75,0.79,-0.16,-0.12,-0.12,-1.01,-0.06,-2.63,3.0,3.0,3.0
546,3.960324,t,188,186,213,73,166,169,191,165,9.28,-1.21,2.9,48.19,83.94,4.37,0.8,-0.16,-0.11,-0.11,-1.13,0.24,-2.65,3.0,3.0,3.0
547,3.975327,t,175,184,212,73,161,163,189,160,9.24,-1.19,3.04,54.63,79.69,3.37,0.8,-0.16,-0.11,-0.11,-1.09,0.41,-2.98,3.0,3.0,3.0
548,3.99033,t,155,190,215,76,162,158,189,153,9.16,-1.12,3.3,68.06,71.75,-0.13,0.81,-0.15,-0.11,-0.11,-1.73,0.71,-2.97,3.0,3.0,3.0
549,4.005334,t,140,196,224,79,168,164,189,150,9.12,-1.08,3.42,76.0,62.75,-5.0,0.82,-0.13,-0.1,-0.1,-2.31,0.73,-2.97,3.0,3.0,3.0
550,4.020352,t,135,197,214,75,159,156,180,146,9.05,-0.97,3.63,77.69,55.75,-5.62,0.82,-0.13,-0.1,-0.1,-2.32,0.84,-3.04,3.0,3.0,3.0
551,4.035356,t,124,197,213,74,156,156,178,146,9.02,-0.91,3.72,78.06,50.06,-5.0,0.83,-0.12,-0.1,-0.1,-2.58,1.23,-3.0,3.0,3.0,3.0
552,4.050358,t,110,204,210,76,158,155,186,150,8.99,-0.85,3.81,76.37,45.63,-4.81,0.83,-0.11,-0.09,-0.09,-2.67,1.32,-3.1,3.0,3.0,3.0
553,4.065362,t,95,210,200,74,156,149,190,154,8.92,-0.72,4.0,52.31,29.31,0.56,0.83,-0.1,-0.08,-0.08,-2.59,1.94,-2.72,3.0,3.0,3.0
554,4.080365,t,93,216,200,75,159,154,196,155,8.9,-0.7,4.03,38.81,21.62,3.5,0.84,-0.09,-0.08,-0.08,-2.57,2.08,-2.7,3.0,3.0,3.0
555,4.095369,t,88,217,201,79,176,172,207,158,8.89,-0.69,4.06,24.5,14.69,5.25,0.84,-0.09,-0.08,-0.08,-2.56,2.23,-2.6,3.0,3.0,3.0
556,4.110372,t,87,217,195,76,170,167,205,158,8.89,-0.69,4.07,8.31,6.12,6.19,0.84,-0.09,-0.08,-0.08,-2.54,2.46,-2.29,3.0,3.0,3.0
557,4.124375,t,87,221,188,74,173,175,220,155,8.91,-0.77,4.01,-31.69,-18.12,7.87,0.84,-0.1,-0.08,-0.08,-2.64,1.65,-1.67,3.0,3.0,3.0
558,4.140379,t,88,223,187,74,173,176,225,151,8.92,-0.81,3.97,-37.38,-26.56,9.13,0.83,-0.1,-0.08,-0.08,-2.78,1.0,-1.39,3.0,3.0,3.0
559,4.154382,t,90,228,186,75,173,182,236,148,8.95,-0.85,3.91,-43.31,-34.88,9.44,0.83,-0.11,-0.08,-0.08,-2.45,0.53,-1.38,3.0,3.0,3.0
560,4.170386,t,88,235,188,77,180,196,258,157,8.97,-0.9,3.84,-53.94,-46.06,6.31,0.83,-0.11,-0.08,-0.08,-2.29,0.24,-1.37,3.0,3.0,3.0
561,4.184389,t,94,232,181,74,171,186,243,144,9.03,-0.98,3.67,-53.69,-49.0,4.94,0.82,-0.12,-0.08,-0.08,-1.9,0.04,-1.11,3.0,3.0,3.0
562,4.200393,t,96,238,176,77,183,200,263,158,9.06,-1.02,3.58,-51.56,-51.19,4.5,0.82,-0.12,-0.09,-0.09,-1.67,-0.01,0.16,3.0,3.0,3.0
563,4.214395,t,93,242,165,74,183,202,271,148,9.13,-1.09,3.4,-40.56,-54.63,1.62,0.81,-0.13,-0.09,-0.09,-0.2,-0.14,1.29,3.0,3.0,3.0
564,4.2304,t,96,243,160,74,179,202,276,148,9.19,-1.14,3.21,-33.31,-53.56,2.0,0.81,-0.13,-0.09,-0.09,0.23,-0.26,1.95,3.0,3.0,3.0
565,4.245402,t,98,250,162,74,183,210,286,150,9.21,-1.16,3.13,-23.56,-50.81,4.19,0.81,-0.14,-0.09,-0.09,0.69,-0.36,2.49,3.0,3.0,3.0
566,4.259406,t,97,254,167,74,188,210,291,146,9.24,-1.18,3.05,-11.31,-46.56,7.19,0.8,-0.14,-0.09,-0.09,1.36,-0.56,3.08,3.0,3.0,3.0
567,4.274409,t,90,262,177,76,198,234,307,138,9.27,-1.21,2.94,17.0,-30.12,17.37,0.8,-0.14,-0.08,-0.08,2.76,-0.5,5.19,3.0,3.0,3.0
568,4.289413,t,90,254,170,73,186,221,282,116,9.27,-1.23,2.92,27.44,-20.31,21.0,0.8,-0.14,-0.08,-0.08,2.1,0.5,5.89,3.0,3.0,3.0
569,4.304416,t,89,251,165,71,183,219,271,116,9.27,-1.27,2.9,31.0,2.56,23.12,0.8,-0.14,-0.07,-0.07,1.57,0.76,6.08,3.0,3.0,3.0
570,4.319419,t,101,254,175,76,190,223,285,118,9.26,-1.31,2.94,32.19,12.56,22.44,0.8,-0.13,-0.07,-0.07,1.4,1.23,5.88,3.0,3.0,3.0
571,4.334422,t,106,252,173,72,172,209,288,116,9.24,-1.33,2.98,27.5,21.0,21.94,0.81,-0.13,-0.06,-0.06,0.33,3.45,3.86,3.0,3.0,3.0
572,4.349426,t,114,252,175,72,170,204,295,116,9.2,-1.39,3.08,4.0,31.5,19.44,0.81,-0.13,-0.06,-0.06,-0.36,4.11,2.61,3.0,3.0,3.0
573,4.36443,t,115,247,178,66,166,200,300,126,9.18,-1.42,3.12,-14.13,30.75,18.06,0.81,-0.13,-0.06,-0.06,-1.07,4.52,1.3,3.0,3.0,3.0
574,4.379457,t,119,244,180,70,176,210,316,135,9.16,-1.47,3.16,-31.44,26.06,17.31,0.81,-0.14,-0.06,-0.06,-2.46,4.56,-1.23,3.0,3.0,3.0
575,4.394461,t,119,245,200,81,177,234,363,176,9.15,-1.6,3.11,-33.63,-23.87,9.06,0.81,-0.14,-0.06,-0.06,-3.31,3.86,-3.51,3.0,3.0,3.0
576,4.409486,t,115,262,219,84,185,240,370,181,9.18,-1.61,3.02,-31.56,-53.25,-3.44,0.81,-0.15,-0.06,-0.06,1.79,3.74,-3.59,3.0,3.0,3.0
577,4.424489,t,100,285,239,93,213,266,408,195,9.23,-1.6,2.88,-24.94,-83.31,-15.19,0.8,-0.15,-0.07,-0.07,6.33,2.47,-3.48,3.0,3.0,3.0
578,4.439492,t,91,316,262,101,235,279,440,215,9.28,-1.56,2.72,33.0,-91.44,-12.94,0.79,-0.15,-0.06,-0.06,15.38,-8.08,0.96,3.0,3.0,3.0
579,4.454496,t,96,298,275,92,227,254,414,211,9.34,-1.51,2.54,87.0,-41.5,9.0,0.79,-0.14,-0.06,-0.05,7.72,-5.05,6.86,3.0,3.0,3.0
580,4.470499,t,137,317,274,92,217,286,506,260,9.28,-1.5,2.78,143.31,76.0,46.06,0.8,-0.12,-0.03,-0.03,-0.08,1.35,5.36,3.0,3.0,3.0
581,4.484518,t,144,337,278,91,215,290,467,263,9.23,-1.54,2.92,-24.06,56.88,33.25,0.81,-0.12,-0.03,-0.03,-9.27,11.76,-7.51,3.0,3.0,3.0
582,4.499521,t,147,344,289,94,227,295,481,275,9.18,-1.65,3.01,-76.31,20.31,8.38,0.81,-0.13,-0.04,-0.04,-10.84,10.8,-13.82,3.0,3.0,3.0
583,4.514524,t,122,306,302,94,237,297,474,275,9.2,-1.68,2.94,-50.13,-38.44,-2.94,0.81,-0.13,-0.04,-0.04,-8.97,9.61,-15.22,3.0,3.0,3.0
584,4.529528,t,98,277,317,98,250,319,511,294,9.23,-1.88,2.47,-179.5,-69.44,17.81,0.79,-0.16,-0.05,-0.05,6.46,-5.26,1.53,3.0,3.0,3.0
585,4.544531,t,109,257,304,95,235,302,479,304,9.31,-1.99,2.33,-190.12,-46.13,23.69,0.78,-0.17,-0.06,-0.06,5.83,-7.66,-1.08,3.0,3.0,3.0
586,4.559534,t,120,254,298,95,235,301,484,312,9.31,-2.09,2.22,-155.06,-33.44,21.37,0.78,-0.18,-0.06,-0.06,1.74,-6.24,-4.63,3.0,3.0,3.0
587,4.575538,t,135,250,294,89,230,301,471,317,9.32,-2.16,2.13,-110.5,-29.56,15.13,0.77,-0.2,-0.07,-0.07,0.11,-4.81,-5.26,3.0,3.0,3.0
588,4.590541,t,134,247,298,86,230,303,470,327,9.33,-2.26,1.97,-69.06,-30.56,8.56,0.77,-0.21,-0.07,-0.07,-1.3,-0.26,-2.47,3.0,3.0,3.0
589,4.604544,t,128,247,302,87,232,305,470,332,9.34,-2.27,1.9,-36.38,-35.56,2.75,0.77,-0.21,-0.07,-0.07,-0.4,0.12,-1.32,3.0,3.0,3.0
590,4.619548,t,108,246,301,90,243,319,511,361,9.37,-2.27,1.75,-21.12,-42.94,-5.94,0.76,-0.21,-0.08,-0.08,0.75,0.04,-0.69,3.0,3.0,3.0
591,4.634573,t,118,255,296,87,232,297,475,350,9.4,-2.27,1.59,-19.94,-43.25,-3.87,0.76,-0.21,-0.08,-0.08,0.3,0.05,-1.43,3.0,3.0,3.0
592,4.649576,t,124,266,301,90,239,304,499,350,9.41,-2.27,1.51,-16.25,-44.88,-0.19,0.76,-0.22,-0.08,-0.08,-0.15,0.99,-1.19,3.0,3.0,3.0
593,4.664595,t,136,270,292,89,239,302,463,354,9.42,-2.28,1.43,-16.12,-46.0,3.69,0.75,-0.22,-0.08,-0.08,-0.74,1.55,-0.97,3.0,3.0,3.0
594,4.679599,t,155,270,275,88,239,298,471,361,9.45,-2.33,1.14,-66.5,-50.13,2.19,0.74,-0.23,-0.08,-0.08,0.08,3.08,0.59,3.0,3.0,3.0
595,4.694626,t,165,263,270,86,239,299,474,362,9.46,-2.35,1.02,-90.62,-51.0,1.0,0.74,-0.23,-0.08,-0.08,0.33,3.0,0.85,3.0,3.0,3.0
596,4.709629,t,181,260,272,89,246,309,510,355,9.47,-2.37,0.89,-112.31,-50.19,0.69,0.73,-0.24,-0.09,-0.09,0.11,2.2,0.78,3.0,3.0,3.0
597,4.724632,t,190,253,248,88,239,294,482,360,9.47,-2.39,0.76,-128.5,-49.06,1.12,0.72,-0.26,-0.1,-0.1,-0.06,1.47,0.58,3.0,3.0,3.0
598,4.739636,t,198,242,241,90,241,297,492,360,9.48,-2.42,0.49,-140.12,-45.94,1.19,0.72,-0.27,-0.11,-0.11,-0.31,-0.61,-0.1,3.0,3.0,3.0
599,4.75464,t,212,217,235,90,253,319,511,391,9.49,-2.44,0.24,-130.0,-40.88,-0.5,0.71,-0.28,-0.12,-0.12,-0.58,-1.2,-0.36,3.0,3.0,3.0
600,4.770643,t,217,211,228,86,243,305,511,358,9.49,-2.44,0.13,-119.0,-37.25,-1.19,0.7,-0.29,-0.12,-0.12,-0.73,-1.27,-0.26,3.0,3.0,3.0
601,4.785646,t,227,200,218,84,242,297,490,364,9.49,-2.44,0.03,-106.69,-34.44,-2.19,0.7,-0.3,-0.13,-0.13,-0.54,-1.01,0.2,3.0,3.0,3.0
602,4.799649,t,230,203,222,86,252,308,509,360,9.49,-2.43,-0.06,-85.37,-30.12,-4.87,0.68,-0.31,-0.14,-0.14,0.3,-0.4,0.78,3.0,3.0,3.0
603,4.814653,t,237,203,206,85,236,296,475,366,9.5,-2.4,-0.31,-84.06,-28.44,-3.81,0.68,-0.32,-0.14,-0.14,-0.04,0.32,0.91,3.0,3.0,3.0
604,4.829656,t,247,203,202,85,238,295,468,380,9.5,-2.39,-0.39,-81.69,-27.12,-1.81,0.68,-0.32,-0.15,-0.15,0.02,0.65,1.02,3.0,3.0,3.0
605,4.844659,t,254,200,200,83,239,294,455,371,9.49,-2.39,-0.47,-81.25,-25.75,1.62,0.67,-0.33,-0.16,-0.16,-0.48,0.99,1.14,3.0,3.0,3.0
606,4.859663,t,258,190,195,82,240,293,443,368,9.49,-2.38,-0.62,-83.62,-25.25,1.87,0.67,-0.34,-0.16,-0.16,-0.29,0.98,1.34,3.0,3.0,3.0
607,4.874666,t,265,177,191,78,239,290,435,363,9.48,-2.37,-0.69,-86.0,-23.94,0.37,0.66,-0.34,-0.16,-0.17,-0.15,0.73,1.62,3.0,3.0,3.0
608,4.88967,t,277,177,191,76,241,292,433,362,9.48,-2.36,-0.76,-87.19,-21.37,-1.69,0.65,-0.35,-0.17,-0.17,-0.15,0.73,1.62,3.0,3.0,3.0
609,4.904673,t,282,154,185,73,242,290,419,339,9.48,-2.3,-0.95,-82.94,-16.25,-3.62,0.65,-0.36,-0.18,-0.18,-0.45,0.27,1.11,3.0,3.0,3.0
610,4.919677,t,282,147,182,70,240,286,403,343,9.48,-2.28,-1.01,-78.31,-16.94,-4.62,0.64,-0.36,-0.18,-0.18,-0.45,0.01,1.04,3.0,3.0,3.0
611,4.934681,t,290,145,182,71,244,288,388,343,9.48,-2.26,-1.07,-74.56,-17.94,-5.75,0.64,-0.37,-0.19,-0.19,-0.59,-0.59,0.29,3.0,3.0,3.0
612,4.950683,t,295,146,174,69,248,288,378,343,9.47,-2.21,-1.18,-70.75,-18.37,-6.94,0.63,-0.37,-0.19,-0.19,-0.56,-0.34,-0.09,3.0,3.0,3.0
613,4.965687,t,298,143,171,69,250,284,370,334,9.47,-2.16,-1.3,-64.19,-20.19,-6.62,0.63,-0.38,-0.2,-0.2,-0.13,0.76,0.19,3.0,3.0,3.0
614,4.97969,t,303,140,173,70,250,285,369,342,9.47,-2.13,-1.36,-61.63,-21.37,-7.12,0.62,-0.39,-0.2,-0.2,0.0,0.79,0.29,3.0,3.0,3.0
615,4.994694,t,309,141,176,72,252,286,372,344,9.46,-2.08,-1.48,-64.87,-23.25,-7.62,0.62,-0.39,-0.21,-0.21,0.05,0.68,0.06,3.0,3.0,3.0
616,5.009697,t,308,143,178,72,249,286,372,346,9.46,-2.04,-1.54,-68.56,-24.12,-8.56,0.61,-0.39,-0.21,-0.21,0.67,0.18,-0.01,3.0,3.0,3.0
617,5.0247,t,306,148,182,76,261,304,403,367,9.46,-2.01,-1.6,-69.75,-23.12,-9.75,0.61,-0.39,-0.21,-0.21,0.65,-0.05,0.39,3.0,3.0,3.0
618,5.039703,t,311,153,182,74,252,286,373,341,9.45,-1.9,-1.75,-66.37,-13.63,-11.25,0.6,-0.4,-0.22,-0.22,1.23,0.27,2.71,3.0,3.0,3.0
619,5.054707,t,311,170,183,74,258,287,375,341,9.45,-1.86,-1.79,-66.75,-8.13,-11.19,0.6,-0.41,-0.23,-0.23,1.15,0.49,3.23,3.0,3.0,3.0
620,5.070711,t,302,174,182,75,252,283,374,326,9.46,-1.82,-1.82,-68.44,-2.62,-11.0,0.6,-0.41,-0.23,-0.23,0.9,0.61,3.82,3.0,3.0,3.0
621,5.084714,t,298,180,189,78,257,292,378,329,9.46,-1.78,-1.83,-74.81,7.81,-10.5,0.59,-0.41,-0.24,-0.24,1.33,0.15,4.42,3.0,3.0,3.0
622,5.099717,t,295,196,189,82,262,294,380,325,9.47,-1.7,-1.84,-77.5,14.5,-9.94,0.59,-0.42,-0.24,-0.24,1.6,-0.02,4.7,3.0,3.0,3.0
623,5.114721,t,283,206,191,86,256,286,388,332,9.5,-1.62,-1.8,-77.94,29.12,-7.37,0.59,-0.42,-0.25,-0.25,4.54,-2.98,5.8,3.0,3.0,3.0
624,5.129724,t,265,233,200,90,255,282,371,330,9.51,-1.59,-1.76,-67.12,53.44,-3.19,0.59,-0.42,-0.26,-0.26,6.3,-4.24,5.47,3.0,3.0,3.0
625,5.144727,t,237,255,195,86,233,246,330,295,9.55,-1.55,-1.59,-60.69,72.0,1.87,0.59,-0.43,-0.27,-0.27,6.32,-3.07,4.31,3.0,3.0,3.0
626,5.159731,t,230,277,210,86,222,231,308,281,9.57,-1.55,-1.45,-48.44,93.31,7.37,0.59,-0.43,-0.28,-0.28,5.56,-1.4,4.34,3.0,3.0,3.0
627,5.174734,t,226,290,220,88,220,228,299,275,9.59,-1.56,-1.26,-22.87,117.12,9.88,0.6,-0.42,-0.28,-0.28,4.57,8.07,4.14,3.0,3.0,3.0
628,5.189737,t,247,292,218,81,198,214,275,251,9.62,-1.57,-1.03,27.75,164.25,-1.62,0.62,-0.41,-0.29,-0.29,2.92,8.07,4.14,3.0,3.0,3.0
629,5.204741,t,269,260,215,78,174,226,240,208,9.69,-1.49,-0.08,24.81,203.37,-35.19,0.64,-0.4,-0.3,-0.3,2.67,9.76,2.63,3.0,3.0,3.0
630,5.219744,t,254,223,203,72,168,220,217,201,9.7,-1.41,0.25,-0.5,206.19,-49.13,0.65,-0.39,-0.31,-0.31,3.25,9.69,1.13,3.0,3.0,3.0
631,5.234748,t,259,214,213,72,173,223,209,209,9.69,-1.32,0.87,-66.5,186.0,-59.44,0.66,-0.38,-0.35,-0.35,5.23,9.35,-3.86,3.0,3.0,3.0
632,5.249751,t,234,166,211,69,169,202,182,189,9.64,-1.12,1.37,-168.31,158.94,-45.81,0.66,-0.38,-0.36,-0.36,4.09,8.29,-4.17,3.0,3.0,3.0
633,5.264754,t,219,161,206,66,166,195,170,180,9.61,-1.11,1.56,-225.94,143.31,-35.75,0.66,-0.39,-0.38,-0.38,3.09,3.93,-4.83,3.0,3.0,3.0
634,5.279758,t,208,164,203,63,168,187,167,176,9.58,-1.15,1.72,-262.69,127.06,-21.44,0.66,-0.4,-0.4,-0.4,1.7,1.88,-5.46,3.0,3.0,3.0
635,5.294768,t,199,157,198,62,170,183,162,176,9.55,-1.21,1.86,-273.56,110.06,-20.62,0.64,-0.42,-0.44,-0.44,-0.26,-3.12,-5.47,3.0,3.0,3.0
636,5.310771,t,199,150,197,66,170,173,160,181,9.48,-1.32,2.11,-182.56,108.19,-26.5,0.64,-0.43,-0.46,-0.46,-0.39,-3.86,-5.34,3.0,3.0,3.0
637,5.325775,t,191,151,200,70,179,178,167,181,9.41,-1.35,2.39,-140.5,105.5,-30.87,0.63,-0.43,-0.47,-0.47,-0.34,-4.13,-5.09,3.0,3.0,3.0
638,5.340778,t,187,154,200,66,166,166,166,168,9.37,-1.34,2.53,-100.62,100.12,-28.81,0.63,-0.43,-0.48,-0.48,-0.38,-5.57,-4.59,3.0,3.0,3.0
639,5.355847,t,175,158,211,68,154,164,173,151,9.3,-1.32,2.8,-23.62,89.37,-14.06,0.64,-0.42,-0.49,-0.49,-0.9,-5.14,-4.62,3.0,3.0,3.0
640,5.370841,t,163,170,204,69,139,148,167,146,9.26,-1.31,2.94,9.56,81.25,-5.87,0.64,-0.42,-0.49,-0.49,-1.28,-3.49,-4.36,3.0,3.0,3.0
641,5.384844,t,158,176,206,71,138,148,169,144,9.22,-1.29,3.06,63.56,73.31,0.25,0.65,-0.41,-0.49,-0.49,-1.47,-2.8,-4.11,3.0,3.0,3.0
642,5.399847,t,129,191,207,74,137,144,157,144,9.1,-1.14,3.45,100.0,68.62,-2.87,0.66,-0.39,-0.49,-0.49,-1.97,-1.58,-3.53,3.0,3.0,3.0
643,5.414874,t,104,177,189,67,127,133,143,138,9.06,-1.07,3.58,108.25,66.87,-5.31,0.66,-0.39,-0.49,-0.49,-2.46,-0.3,-3.09,3.0,3.0,3.0
644,5.429877,t,104,197,206,71,138,142,156,146,9.02,-0.98,3.7,112.31,64.12,-7.69,0.67,-0.38,-0.49,-0.49,-2.56,0.01,-3.12,3.0,3.0,3.0
645,5.44488,t,103,202,203,74,146,142,158,140,8.98,-0.9,3.81,112.87,60.06,-9.13,0.68,-0.36,-0.49,-0.49,-2.61,0.46,-3.12,3.0,3.0,3.0
646,5.459884,t,96,218,202,74,147,138,172,130,8.89,-0.65,4.07,106.12,39.0,-3.62,0.69,-0.34,-0.48,-0.48,-3.03,0.98,-2.89,3.0,3.0,3.0
647,5.474887,t,97,222,207,74,154,141,175,122,8.87,-0.57,4.12,102.37,29.94,-1.37,0.69,-0.33,-0.48,-0.48,-3.11,1.42,-2.55,3.0,3.0,3.0
648,5.48989,t,97,235,208,77,166,145,184,117,8.86,-0.5,4.16,94.62,20.44,-0.31,0.7,-0.33,-0.48,-0.48,-2.98,2.19,-1.71,3.0,3.0,3.0
649,5.504894,t,96,233,197,79,171,152,191,118,8.85,-0.44,4.19,66.25,4.69,-1.06,0.7,-0.32,-0.47,-0.47,-2.37,2.88,-0.6,3.0,3.0,3.0
650,5.519904,t,98,236,186,74,157,148,177,104,8.85,-0.33,4.19,27.19,-5.81,-3.56,0.7,-0.31,-0.47,-0.47,-2.27,3.13,0.03,3.0,3.0,3.0
651,5.534908,t,98,230,176,74,156,149,180,103,8.86,-0.32,4.18,5.5,-9.38,-4.12,0.7,-0.31,-0.47,-0.47,-2.44,3.06,0.27,3.0,3.0,3.0
652,5.549936,t,100,230,174,72,158,150,184,102,8.87,-0.33,4.16,-16.81,-12.94,-3.5,0.7,-0.32,-0.47,-0.47,-2.51,3.02,0.51,3.0,3.0,3.0
653,5.56494,t,97,217,168,72,146,149,190,98,8.9,-0.4,4.09,-59.81,-22.94,1.37,0.69,-0.33,-0.47,-0.47,-2.06,2.41,-0.07,3.0,3.0,3.0
654,5.579943,t,96,216,160,72,148,158,200,97,8.94,-0.53,3.99,-88.69,-32.19,5.94,0.69,-0.33,-0.47,-0.47,-1.9,2.17,-0.3,3.0,3.0,3.0
655,5.594946,t,96,216,160,72,148,158,200,97,8.94,-0.53,3.92,-95.25,-36.56,6.0,0.69,-0.34,-0.48,-0.48,-1.56,1.18,-0.56,3.0,3.0,3.0
656,5.609949,t,104,212,155,69,136,165,208,91,8.99,-0.67,3.85,-94.0,-42.56,1.94,0.68,-0.36,-0.48,-0.48,-0.99,0.22,0.04,3.0,3.0,3.0
657,5.624968,t,106,219,157,68,144,172,221,92,9.04,-0.78,3.7,-71.69,-43.44,-1.87,0.67,-0.37,-0.48,-0.48,-0.5,-0.29,0.65,3.0,3.0,3.0
658,5.639971,t,106,218,155,66,150,177,221,92,9.07,-0.8,3.62,-39.94,-38.75,-5.44,0.67,-0.37,-0.48,-0.48,0.61,-1.23,3.26,3.0,3.0,3.0
659,5.654975,t,102,230,161,74,168,191,230,97,9.12,-0.83,3.5,-26.31,-33.31,-4.0,0.67,-0.37,-0.48,-0.48,1.0,-1.36,3.89,3.0,3.0,3.0
660,5.66999,t,95,228,157,70,162,183,214,95,9.13,-0.84,3.45,-14.56,-27.62,-0.62,0.67,-0.38,-0.48,-0.48,1.48,-1.41,4.33,3.0,3.0,3.0
661,5.684994,t,95,233,161,74,171,197,215,97,9.14,-0.85,3.42,-2.44,-19.94,5.12,0.66,-0.38,-0.48,-0.48,2.13,-1.14,4.68,3.0,3.0,3.0
662,5.699997,t,96,228,153,65,148,188,201,89,9.15,-0.88,3.41,23.25,2.31,20.0,0.67,-0.38,-0.48,-0.48,1.1,0.2,3.56,3.0,3.0,3.0
663,5.715,t,98,226,151,62,141,189,198,90,9.14,-0.91,3.43,29.69,3.75,19.69,0.67,-0.37,-0.48,-0.48,0.31,0.86,2.68,3.0,3.0,3.0
664,5.730004,t,113,238,162,69,146,197,214,88,9.13,-0.92,3.45,46.06,2.87,18.19,0.67,-0.37,-0.47,-0.47,-0.56,1.57,2.44,3.0,3.0,3.0
665,5.745034,t,102,218,150,65,137,178,206,83,9.12,-0.91,3.46,48.13,1.12,16.44,0.68,-0.37,-0.47,-0.47,-0.77,2.6,2.12,3.0,3.0,3.0
666,5.760038,t,114,238,161,70,148,190,227,88,9.12,-0.91,3.47,27.25,1.19,11.0,0.68,-0.36,-0.46,-0.46,-0.75,2.64,2.12,3.0,3.0,3.0
667,5.775041,t,115,238,161,66,150,186,234,89,9.11,-0.92,3.48,8.88,1.25,8.75,0.68,-0.36,-0.46,-0.46,-0.78,2.76,1.88,3.0,3.0,3.0
668,5.790057,t,101,220,153,60,158,186,270,99,9.11,-0.96,3.47,-20.0,-2.75,7.87,0.68,-0.37,-0.46,-0.46,-0.94,2.37,0.12,3.0,3.0,3.0
669,5.805061,t,106,238,178,69,177,197,280,105,9.12,-0.99,3.45,-26.94,-10.81,7.19,0.68,-0.37,-0.46,-0.46,-0.38,2.5,-0.09,3.0,3.0,3.0
670,5.820063,t,103,248,186,73,178,199,292,108,9.13,-1.02,3.4,-32.0,-26.94,5.62,0.68,-0.38,-0.46,-0.46,1.1,2.9,-0.36,3.0,3.0,3.0
671,5.835067,t,92,267,218,78,191,217,325,113,9.24,-1.06,3.09,-9.5,-74.94,-4.19,0.67,-0.38,-0.46,-0.46,11.99,-0.31,0.5,3.0,3.0,3.0
672,5.850097,t,90,258,245,84,197,224,336,140,9.27,-1.03,3.01,29.25,-53.31,-5.94,0.67,-0.38,-0.45,-0.45,12.81,-4.61,0.33,3.0,3.0,3.0
673,5.8651,t,90,258,245,84,197,224,336,140,9.27,-1.03,3.01,29.25,-53.31,-5.94,0.67,-0.38,-0.45,-0.45,12.81,-4.61,0.33,3.0,3.0,3.0
674,5.880104,t,113,264,254,83,203,230,380,185,9.24,-0.91,3.13,160.94,55.44,8.38,0.69,-0.36,-0.44,-0.44,-5.89,5.44,0.6,3.0,3.0,3.0
675,5.895107,t,114,276,244,84,201,239,396,200,9.16,-0.92,3.35,6.37,50.88,31.5,0.69,-0.36,-0.44,-0.44,-7.7,9.85,-6.5,3.0,3.0,3.0
676,5.91011,t,110,312,272,98,216,272,458,225,9.13,-1.12,3.38,-136.75,10.13,11.88,0.69,-0.37,-0.45,-0.45,-9.29,7.05,-10.59,3.0,3.0,3.0
677,5.925114,t,110,312,272,98,216,276,458,230,9.15,-1.19,3.3,-88.5,-77.94,12.06,0.68,-0.39,-0.45,-0.45,-0.39,-3.77,-1.7,3.0,3.0,3.0
678,5.940117,t,84,282,299,106,245,294,511,242,9.24,-1.34,2.98,-94.06,-99.12,17.81,0.67,-0.4,-0.45,-0.45,2.45,-6.83,-0.1,3.0,3.0,3.0
679,5.955121,t,76,282,299,98,237,276,464,232,9.28,-1.44,2.8,-124.62,-96.31,21.44,0.66,-0.41,-0.45,-0.45,4.23,-9.05,-0.59,3.0,3.0,3.0
680,5.971124,t,76,282,300,98,233,272,453,238,9.31,-1.54,2.63,-135.25,-79.81,22.81,0.65,-0.43,-0.45,-0.45,4.72,-9.9,-1.33,3.0,3.0,3.0
681,5.985127,t,82,282,303,98,231,272,473,245,9.34,-1.62,2.51,-42.75,-42.81,17.87,0.65,-0.43,-0.45,-0.45,2.67,-5.06,-2.13,3.0,3.0,3.0
682,6.000131,t,106,298,300,94,238,291,511,261,9.36,-1.68,2.36,45.38,-22.19,11.13,0.65,-0.43,-0.44,-0.44,-0.36,0.77,-2.45,3.0,3.0,3.0
683,6.015134,t,111,295,288,92,224,274,494,254,9.37,-1.67,2.33,53.81,-26.56,7.12,0.65,-0.43,-0.44,-0.44,-2.04,4.03,-1.6,3.0,3.0,3.0
684,6.030138,t,110,304,295,94,233,283,497,254,9.4,-1.65,2.22,22.69,-44.44,-0.62,0.65,-0.43,-0.44,-0.44,-1.57,3.87,-0.84,3.0,3.0,3.0
685,6.045142,t,97,298,287,93,230,278,502,260,9.42,-1.65,2.14,2.06,-50.94,-1.56,0.65,-0.43,-0.43,-0.43,-0.27,2.39,0.03,3.0,3.0,3.0
686,6.060144,t,96,294,279,92,232,278,509,253,9.46,-1.67,1.95,-35.75,-53.69,4.56,0.64,-0.44,-0.43,-0.43,0.75,0.77,0.03,3.0,3.0,3.0
687,6.075148,t,86,273,257,84,218,264,481,250,9.48,-1.74,1.75,-61.19,-49.31,9.44,0.64,-0.45,-0.43,-0.43,-0.45,0.86,-0.32,3.0,3.0,3.0
688,6.090151,t,92,290,266,86,230,275,511,258,9.5,-1.77,1.65,-72.44,-49.06,8.38,0.63,-0.45,-0.43,-0.43,-0.96,1.02,-0.42,3.0,3.0,3.0
689,6.105155,t,89,286,265,85,231,275,511,259,9.51,-1.81,1.54,-84.25,-51.69,6.25,0.63,-0.46,-0.43,-0.43,-1.16,1.03,-0.49,3.0,3.0,3.0
690,6.120158,t,87,278,253,82,229,272,511,259,9.52,-1.83,1.42,-92.31,-55.56,3.19,0.62,-0.48,-0.43,-0.43,-1.03,0.81,-0.58,3.0,3.0,3.0
691,6.135161,t,96,271,250,86,231,273,511,266,9.55,-1.87,1.17,-90.25,-58.81,-2.44,0.61,-0.49,-0.44,-0.44,0.15,-1.3,-0.55,3.0,3.0,3.0
692,6.150165,t,98,261,249,84,231,272,511,275,9.57,-1.88,0.94,-66.5,-53.25,-4.25,0.6,-0.49,-0.44,-0.44,0.08,-1.6,-0.37,3.0,3.0,3.0
693,6.165168,t,98,253,246,83,230,270,511,272,9.58,-1.89,0.84,-52.88,-49.25,-3.81,0.59,-0.5,-0.44,-0.44,0.04,-1.69,-0.04,3.0,3.0,3.0
694,6.180172,t,101,259,250,86,234,276,511,268,9.59,-1.89,0.75,-41.44,-45.94,-3.31,0.59,-0.5,-0.44,-0.44,0.06,-1.51,0.17,3.0,3.0,3.0
695,6.195175,t,105,253,245,84,229,270,511,270,9.59,-1.89,0.67,-32.56,-42.25,-2.87,0.58,-0.51,-0.43,-0.43,0.0,-0.45,0.59,3.0,3.0,3.0
696,6.210178,t,118,249,241,80,226,264,511,268,9.6,-1.9,0.47,-27.69,-32.63,2.81,0.58,-0.51,-0.43,-0.43,-0.54,0.55,0.92,3.0,3.0,3.0
697,6.225183,t,132,246,242,82,227,263,511,269,9.6,-1.91,0.4,-35.75,-33.0,4.5,0.57,-0.52,-0.43,-0.43,-0.84,0.92,1.07,3.0,3.0,3.0
698,6.240185,t,146,234,230,82,225,264,511,272,9.61,-1.93,0.24,-63.06,-39.63,4.25,0.57,-0.52,-0.43,-0.43,-0.73,1.44,0.94,3.0,3.0,3.0
699,6.255201,t,150,226,231,85,234,276,511,278,9.61,-1.93,0.15,-78.19,-41.0,2.12,0.56,-0.53,-0.43,-0.43,-0.53,1.56,0.94,3.0,3.0,3.0
700,6.270205,t,168,208,217,78,225,263,511,277,9.61,-1.93,-0.04,-94.44,-40.0,-0.69,0.55,-0.55,-0.44,-0.44,-0.18,0.72,1.22,3.0,3.0,3.0
701,6.285209,t,180,203,217,82,226,261,511,282,9.61,-1.93,-0.23,-93.37,-37.69,-1.56,0.54,-0.55,-0.44,-0.44,-0.26,0.43,1.28,3.0,3.0,3.0
702,6.300212,t,196,201,223,85,236,268,511,287,9.61,-1.92,-0.32,-89.87,-35.81,-1.56,0.54,-0.56,-0.44,-0.44,-0.32,0.18,1.26,3.0,3.0,3.0
703,6.315215,t,201,194,219,86,241,277,511,318,9.6,-1.91,-0.4,-86.87,-33.5,-1.81,0.53,-0.56,-0.45,-0.45,-0.4,0.01,1.1,3.0,3.0,3.0
704,6.330218,t,211,185,217,82,231,259,511,305,9.6,-1.9,-0.48,-85.62,-31.5,-2.37,0.52,-0.57,-0.45,-0.45,-0.45,-0.21,0.96,3.0,3.0,3.0
705,6.345222,t,221,184,214,82,230,252,509,315,9.6,-1.87,-0.63,-89.19,-26.62,-3.25,0.51,-0.58,-0.45,-0.45,-0.49,-0.23,0.51,3.0,3.0,3.0
706,6.360225,t,234,174,210,83,238,266,511,336,9.6,-1.84,-0.77,-91.69,-23.31,-3.81,0.5,-0.59,-0.46,-0.46,-0.71,-0.16,0.48,3.0,3.0,3.0
707,6.375229,t,246,166,202,77,228,247,471,314,9.59,-1.82,-0.84,-87.62,-23.81,-4.0,0.49,-0.6,-0.46,-0.46,-0.61,-0.17,0.89,3.0,3.0,3.0
708,6.390232,t,246,166,202,77,228,247,471,314,9.59,-1.82,-0.84,-87.62,-23.81,-4.0,0.49,-0.6,-0.46,-0.46,-0.61,-0.17,0.89,3.0,3.0,3.0
709,6.405235,t,263,155,205,79,234,260,462,310,9.59,-1.75,-1.05,-73.87,-29.19,-5.81,0.48,-0.6,-0.46,-0.46,-0.41,-0.37,0.79,3.0,3.0,3.0
710,6.421239,t,250,136,183,71,218,257,426,326,9.58,-1.7,-1.19,-65.0,-34.06,-9.44,0.47,-0.62,-0.47,-0.47,0.16,-0.87,0.93,3.0,3.0,3.0
711,6.435242,t,282,146,190,77,237,260,424,325,9.57,-1.64,-1.34,-63.75,-34.5,-10.38,0.46,-0.62,-0.47,-0.47,0.26,-0.85,1.05,3.0,3.0,3.0
712,6.450245,t,283,149,190,79,254,278,466,334,9.56,-1.61,-1.42,-65.12,-34.31,-10.69,0.46,-0.62,-0.47,-0.47,0.34,-0.84,1.11,3.0,3.0,3.0
713,6.465262,t,288,152,177,76,239,260,403,323,9.56,-1.57,-1.49,-66.56,-33.94,-10.94,0.45,-0.63,-0.47,-0.47,0.43,-0.53,1.18,3.0,3.0,3.0
714,6.480265,t,297,156,176,76,245,264,393,328,9.55,-1.54,-1.56,-63.56,-31.87,-12.31,0.44,-0.63,-0.47,-0.47,0.69,0.0,1.62,3.0,3.0,3.0
715,6.495268,t,303,161,178,70,245,267,364,334,9.54,-1.43,-1.75,-56.56,-26.19,-12.31,0.43,-0.64,-0.48,-0.48,1.15,0.46,2.16,3.0,3.0,3.0
716,6.510272,t,301,170,177,68,243,265,349,330,9.53,-1.39,-1.8,-54.25,-21.06,-12.0,0.42,-0.65,-0.48,-0.48,1.15,0.48,2.52,3.0,3.0,3.0
717,6.525275,t,298,188,186,71,248,266,346,319,9.53,-1.35,-1.84,-55.0,-10.06,-13.38,0.42,-0.65,-0.48,-0.48,1.25,0.37,3.68,3.0,3.0,3.0
718,6.540279,t,284,210,191,80,259,284,360,350,9.53,-1.27,-1.89,-54.31,-4.12,-14.25,0.41,-0.65,-0.48,-0.48,0.97,0.16,4.48,3.0,3.0,3.0
719,6.555283,t,276,224,195,82,246,266,336,318,9.54,-1.23,-1.9,-55.69,0.0,-15.19,0.41,-0.65,-0.49,-0.49,0.97,-0.14,5.36,3.0,3.0,3.0
720,6.570293,t,260,248,208,88,244,266,348,309,9.55,-1.14,-1.9,-68.69,18.5,-14.44,0.4,-0.65,-0.5,-0.5,2.74,-3.24,7.38,3.0,3.0,3.0
721,6.585296,t,255,259,205,84,233,249,333,304,9.57,-1.05,-1.85,-71.81,30.12,-12.56,0.39,-0.66,-0.5,-0.5,5.26,-4.14,7.1,3.0,3.0,3.0
722,6.6003,t,243,275,206,85,226,238,319,298,9.59,-1.01,-1.77,-70.75,52.0,-8.88,0.39,-0.66,-0.51,-0.51,7.12,-4.35,6.52,3.0,3.0,3.0
723,6.615303,t,234,281,205,80,222,225,304,278,9.61,-0.99,-1.65,-62.5,80.44,-3.31,0.39,-0.65,-0.51,-0.51,7.01,-2.69,4.11,3.0,3.0,3.0
724,6.630306,t,242,285,207,77,213,214,286,257,9.64,-0.98,-1.48,-12.13,132.12,0.44,0.39,-0.65,-0.53,-0.53,5.09,0.74,3.72,3.0,3.0,3.0
725,6.64535,t,267,240,187,69,191,216,228,232,9.73,-0.95,-0.73,10.31,166.12,-9.25,0.4,-0.63,-0.55,-0.55,3.3,3.34,3.68,3.0,3.0,3.0
726,6.660354,t,258,218,182,65,180,212,210,226,9.75,-0.93,-0.44,2.12,173.69,-12.56,0.41,-0.62,-0.56,-0.56,3.2,3.4,2.63,3.0,3.0,3.0
727,6.675357,t,253,191,184,66,176,212,202,221,9.76,-0.91,-0.14,-21.19,171.19,-10.0,0.42,-0.61,-0.58,-0.58,4.46,3.68,-1.25,3.0,3.0,3.0
728,6.690373,t,245,173,184,61,168,202,187,218,9.75,-0.89,0.39,-32.81,160.37,-5.19,0.42,-0.6,-0.59,-0.59,5.08,3.75,-1.87,3.0,3.0,3.0
729,6.705376,t,237,170,186,62,170,191,179,208,9.74,-0.89,0.63,-50.06,146.44,0.5,0.42,-0.59,-0.6,-0.6,5.32,3.63,-2.27,3.0,3.0,3.0
730,6.720392,t,215,159,187,66,172,180,174,181,9.7,-0.94,1.04,-69.62,113.12,13.44,0.42,-0.58,-0.62,-0.62,1.63,-0.12,-3.67,3.0,3.0,3.0
731,6.735395,t,208,170,195,66,170,181,172,175,9.65,-1.01,1.38,-53.63,103.06,10.44,0.42,-0.58,-0.63,-0.63,1.24,-0.39,-3.58,3.0,3.0,3.0
732,6.750411,t,207,174,196,66,170,182,168,168,9.62,-1.03,1.54,-34.94,97.44,5.62,0.42,-0.58,-0.63,-0.63,1.45,-0.52,-3.08,3.0,3.0,3.0
733,6.765414,t,202,173,197,66,165,182,163,156,9.6,-1.03,1.69,-16.0,97.31,0.5,0.42,-0.57,-0.64,-0.64,1.61,-0.35,-2.81,3.0,3.0,3.0
734,6.779441,t,198,179,199,67,161,182,166,151,9.57,-1.03,1.86,13.63,100.81,-0.94,0.43,-0.56,-0.65,-0.65,1.28,-0.97,-2.25,3.0,3.0,3.0
735,6.794447,t,195,179,198,67,144,166,164,143,9.45,-1.02,2.37,28.06,103.19,6.31,0.43,-0.55,-0.66,-0.66,0.45,-0.6,-2.48,3.0,3.0,3.0
736,6.80945,t,180,181,197,70,142,165,173,151,9.41,-1.02,2.54,24.87,103.44,6.87,0.44,-0.53,-0.67,-0.67,-0.05,0.27,-2.79,3.0,3.0,3.0
737,6.824454,t,176,178,187,67,130,152,159,144,9.31,-1.03,2.87,20.0,98.87,9.31,0.44,-0.53,-0.67,-0.67,-0.87,0.52,-3.61,3.0,3.0,3.0
738,6.839457,t,165,174,185,67,127,144,152,144,9.26,-1.03,3.03,22.37,96.56,9.38,0.45,-0.52,-0.67,-0.67,-1.03,0.36,-3.87,3.0,3.0,3.0
739,6.85446,t,147,169,184,65,122,138,137,145,9.16,-1.03,3.33,36.31,86.25,9.13,0.45,-0.51,-0.68,-0.68,-2.1,0.41,-4.02,3.0,3.0,3.0
740,6.869464,t,144,169,184,65,121,137,137,146,9.11,-1.02,3.45,44.56,77.12,10.19,0.46,-0.5,-0.68,-0.68,-2.86,0.73,-4.41,3.0,3.0,3.0
741,6.885467,t,132,176,185,66,123,137,142,148,9.07,-1.0,3.57,51.75,67.37,10.0,0.47,-0.49,-0.69,-0.69,-3.23,0.51,-5.44,3.0,3.0,3.0
742,6.89947,t,122,178,187,69,123,135,148,149,9.0,-0.94,3.76,68.37,52.81,5.81,0.47,-0.49,-0.69,-0.69,-3.87,0.93,-5.66,3.0,3.0,3.0
743,6.914474,t,114,180,189,71,123,135,155,142,8.97,-0.9,3.85,75.31,46.0,2.62,0.47,-0.48,-0.69,-0.69,-4.06,1.2,-5.5,3.0,3.0,3.0
744,6.929492,t,112,191,185,75,125,137,170,136,8.9,-0.72,4.03,75.75,24.94,-6.25,0.48,-0.47,-0.69,-0.69,-4.21,1.2,-4.59,3.0,3.0,3.0
745,6.944509,t,102,194,182,75,121,138,175,131,8.89,-0.66,4.06,68.5,18.19,-9.13,0.49,-0.46,-0.69,-0.69,-4.19,1.07,-4.25,3.0,3.0,3.0
746,6.959524,t,98,198,180,74,119,139,188,130,8.89,-0.6,4.09,59.38,10.56,-11.06,0.49,-0.46,-0.69,-0.69,-4.01,0.68,-3.97,3.0,3.0,3.0
747,6.974527,t,99,209,178,74,123,140,191,130,8.89,-0.55,4.09,40.38,-4.87,-15.44,0.49,-0.46,-0.69,-0.69,-3.75,0.22,-2.92,3.0,3.0,3.0
748,6.989531,t,103,222,169,74,131,142,206,114,8.92,-0.4,4.04,24.87,-22.94,-15.94,0.49,-0.46,-0.68,-0.68,-3.16,0.2,-2.34,3.0,3.0,3.0
749,7.004534,t,103,222,169,73,130,141,210,105,8.94,-0.37,3.99,20.0,-32.38,-10.13,0.49,-0.46,-0.68,-0.68,-2.78,0.53,-2.03,3.0,3.0,3.0
750,7.019537,t,99,220,168,72,126,146,224,102,8.97,-0.36,3.93,16.06,-41.56,-3.12,0.48,-0.46,-0.68,-0.68,-2.59,1.16,-1.97,3.0,3.0,3.0
751,7.035541,t,106,224,168,72,124,158,238,99,9.0,-0.36,3.85,10.19,-64.19,6.12,0.48,-0.47,-0.67,-0.67,-2.13,2.14,-1.13,3.0,3.0,3.0
752,7.049544,t,134,221,159,67,136,170,237,95,9.09,-0.39,3.63,-19.44,-76.06,6.12,0.47,-0.48,-0.67,-0.67,-1.22,1.66,0.82,3.0,3.0,3.0
753,7.064548,t,127,227,164,71,151,178,252,94,9.15,-0.41,3.49,-34.19,-86.5,2.62,0.47,-0.49,-0.67,-0.67,-0.57,1.37,2.29,3.0,3.0,3.0
754,7.079551,t,133,235,158,71,166,180,246,95,9.26,-0.47,3.19,-49.81,-94.81,-0.88,0.46,-0.49,-0.67,-0.67,0.31,0.61,3.52,3.0,3.0,3.0
755,7.094554,t,121,246,163,73,174,194,242,93,9.34,-0.51,2.92,-18.69,-72.62,3.81,0.46,-0.5,-0.66,-0.66,5.29,-1.79,7.9,3.0,3.0,3.0
756,7.109564,t,118,251,172,74,172,200,237,93,9.36,-0.51,2.85,14.75,-45.44,9.06,0.46,-0.51,-0.66,-0.66,6.6,-1.44,8.66,3.0,3.0,3.0
757,7.124579,t,122,249,170,73,152,198,215,90,9.36,-0.52,2.87,53.56,17.06,18.19,0.46,-0.5,-0.66,-0.66,6.53,0.13,8.65,3.0,3.0,3.0
758,7.139582,t,122,250,172,72,143,196,212,90,9.33,-0.52,2.94,64.19,43.44,19.5,0.47,-0.5,-0.66,-0.66,5.45,-0.2,7.5,3.0,3.0,3.0
759,7.154586,t,116,246,172,70,132,170,234,88,9.26,-0.51,3.18,77.0,74.94,22.5,0.49,-0.48,-0.66,-0.66,2.17,0.42,4.62,3.0,3.0,3.0
760,7.169589,t,116,248,176,66,138,168,245,86,9.17,-0.53,3.42,52.94,68.44,27.75,0.49,-0.48,-0.66,-0.66,-1.04,3.14,1.84,3.0,3.0,3.0
761,7.185593,t,120,244,186,70,153,172,260,89,9.13,-0.55,3.51,39.25,57.44,29.44,0.5,-0.47,-0.66,-0.66,-1.94,4.27,0.77,3.0,3.0,3.0
762,7.199596,t,122,248,190,77,161,184,271,105,9.1,-0.58,3.58,20.31,41.69,29.37,0.5,-0.47,-0.66,-0.66,-3.12,5.14,-1.27,3.0,3.0,3.0
763,7.2146,t,126,257,204,79,163,199,279,116,9.09,-0.62,3.6,-2.19,14.88,24.69,0.5,-0.47,-0.66,-0.66,-2.47,5.84,-2.0,3.0,3.0,3.0
764,7.229603,t,115,280,228,83,190,218,301,143,9.15,-0.7,3.45,-38.63,-86.81,3.0,0.49,-0.49,-0.65,-0.65,10.44,-3.18,-2.72,3.0,3.0,3.0
765,7.244606,t,101,263,285,89,205,234,324,206,9.23,-0.71,3.22,19.0,-57.63,-5.81,0.49,-0.49,-0.65,-0.65,11.3,-6.21,-0.92,3.0,3.0,3.0
766,7.25961,t,99,265,274,85,202,239,326,228,9.22,-0.67,3.24,87.0,8.44,3.75,0.5,-0.48,-0.65,-0.65,7.93,-6.42,1.38,3.0,3.0,3.0
767,7.274613,t,100,273,270,82,205,262,330,247,9.19,-0.64,3.35,63.5,50.5,33.0,0.5,-0.48,-0.65,-0.65,-6.93,2.36,-8.36,3.0,3.0,3.0
768,7.289617,t,85,283,274,80,216,269,338,272,9.18,-0.73,3.35,-48.63,4.75,38.88,0.5,-0.48,-0.64,-0.64,-5.4,6.58,-11.17,3.0,3.0,3.0
769,7.304632,t,72,242,289,82,226,277,335,289,9.21,-0.86,3.22,-42.06,-53.44,23.87,0.5,-0.49,-0.64,-0.64,-4.51,6.1,-7.01,3.0,3.0,3.0
770,7.319636,t,71,229,293,86,225,276,334,296,9.24,-0.93,3.13,-67.19,-75.69,16.94,0.49,-0.5,-0.64,-0.64,3.12,-3.57,-1.87,3.0,3.0,3.0
771,7.334639,t,76,232,294,87,223,276,340,298,9.31,-1.07,2.86,-106.06,-75.69,15.5,0.49,-0.51,-0.64,-0.64,3.9,-6.24,-3.36,3.0,3.0,3.0
772,7.350655,t,94,245,290,84,213,274,340,298,9.34,-1.16,2.74,-121.62,-59.63,19.06,0.48,-0.52,-0.64,-0.64,1.28,-5.63,-4.8,3.0,3.0,3.0
773,7.364658,t,112,242,279,82,201,275,335,298,9.37,-1.31,2.56,-79.69,-42.69,19.87,0.47,-0.53,-0.64,-0.64,-0.33,-2.38,-3.97,3.0,3.0,3.0
774,7.380662,t,126,234,270,79,200,278,338,302,9.39,-1.35,2.47,-53.5,-44.88,13.0,0.47,-0.54,-0.63,-0.63,0.1,-0.15,-2.07,3.0,3.0,3.0
775,7.394665,t,118,224,268,80,204,280,334,308,9.42,-1.4,2.3,-27.06,-51.44,4.81,0.47,-0.55,-0.63,-0.63,-0.21,0.09,-2.46,3.0,3.0,3.0
776,7.409668,t,111,216,256,77,201,278,328,315,9.44,-1.41,2.2,-33.38,-52.63,1.37,0.46,-0.55,-0.63,-0.63,-0.24,0.41,-2.27,3.0,3.0,3.0
777,7.424672,t,112,218,262,80,215,299,346,332,9.47,-1.43,2.1,-41.56,-57.88,-2.44,0.46,-0.56,-0.63,-0.63,0.03,0.48,-2.23,3.0,3.0,3.0
778,7.439675,t,115,217,255,81,210,289,340,335,9.53,-1.44,1.75,-42.38,-65.25,-4.69,0.45,-0.57,-0.62,-0.62,-0.29,0.0,-1.49,3.0,3.0,3.0
779,7.454678,t,120,215,246,79,204,272,328,329,9.55,-1.45,1.63,-43.63,-65.31,-2.19,0.44,-0.58,-0.62,-0.62,-0.49,-0.06,-1.59,3.0,3.0,3.0
780,7.470682,t,122,216,246,78,204,273,334,329,9.57,-1.46,1.52,-47.0,-65.06,-0.37,0.44,-0.58,-0.62,-0.62,-0.38,0.09,-1.33,3.0,3.0,3.0
781,7.484685,t,130,216,246,78,205,274,335,327,9.59,-1.47,1.4,-49.44,-64.12,-0.75,0.43,-0.59,-0.62,-0.62,-0.19,0.28,-0.76,3.0,3.0,3.0
782,7.500689,t,146,217,218,76,206,268,329,317,9.63,-1.5,1.05,-71.75,-57.88,-3.31,0.42,-0.6,-0.61,-0.61,-0.47,0.72,0.71,3.0,3.0,3.0
783,7.514698,t,152,209,213,70,204,263,327,316,9.64,-1.51,0.94,-85.44,-55.75,-3.37,0.42,-0.61,-0.61,-0.61,-0.52,0.67,0.7,3.0,3.0,3.0
784,7.529771,t,165,204,211,68,210,265,319,325,9.65,-1.51,0.82,-98.75,-53.81,-3.75,0.4,-0.62,-0.61,-0.61,-0.67,0.54,0.66,3.0,3.0,3.0
785,7.544774,t,171,205,201,66,212,258,314,319,9.66,-1.53,0.59,-116.62,-51.06,-2.75,0.39,-0.63,-0.61,-0.61,-0.65,-0.11,0.13,3.0,3.0,3.0
786,7.560778,t,186,195,191,63,221,269,316,318,9.67,-1.54,0.37,-120.0,-45.94,-3.94,0.38,-0.64,-0.61,-0.61,-0.5,-0.04,0.33,3.0,3.0,3.0
787,7.575788,t,200,184,187,62,214,261,302,307,9.68,-1.54,0.26,-118.37,-44.0,-5.19,0.37,-0.65,-0.61,-0.61,-0.52,-0.11,0.32,3.0,3.0,3.0
788,7.590791,t,210,183,191,63,220,264,310,298,9.68,-1.53,0.16,-114.75,-42.38,-6.75,0.36,-0.66,-0.61,-0.61,-0.52,-0.36,0.45,3.0,3.0,3.0
789,7.605807,t,218,175,187,63,226,274,323,316,9.68,-1.52,0.06,-108.94,-41.81,-8.69,0.35,-0.66,-0.61,-0.61,-0.57,-0.58,0.42,3.0,3.0,3.0
790,7.62081,t,221,159,178,59,214,255,301,304,9.69,-1.49,-0.12,-105.62,-42.06,-9.0,0.33,-0.67,-0.61,-0.61,-0.54,-1.49,0.14,3.0,3.0,3.0
791,7.635813,t,239,158,181,62,230,262,312,311,9.69,-1.45,-0.31,-92.0,-42.75,-9.38,0.32,-0.68,-0.61,-0.61,-0.28,-2.27,0.06,3.0,3.0,3.0
792,7.650817,t,246,150,180,63,231,262,315,312,9.69,-1.43,-0.4,-62.13,-39.31,-7.37,0.31,-0.69,-0.61,-0.61,-0.19,-2.47,0.15,3.0,3.0,3.0
793,7.66582,t,246,144,178,63,233,261,316,313,9.68,-1.4,-0.56,-45.13,-37.19,-5.25,0.31,-0.69,-0.61,-0.61,-0.08,-2.47,0.53,3.0,3.0,3.0
794,7.680824,t,250,146,180,68,249,280,334,328,9.68,-1.39,-0.62,-28.62,-34.81,-2.75,0.31,-0.69,-0.61,-0.61,-0.06,-2.3,0.99,3.0,3.0,3.0
795,7.695827,t,255,143,171,66,232,262,317,318,9.68,-1.39,-0.68,-17.62,-31.5,-0.19,0.3,-0.7,-0.61,-0.61,-0.84,-0.37,1.03,3.0,3.0,3.0
796,7.71083,t,262,160,166,68,246,280,341,335,9.66,-1.4,-0.83,-25.31,-26.94,3.56,0.3,-0.7,-0.61,-0.61,-0.7,0.24,1.02,3.0,3.0,3.0
797,7.724865,t,266,164,162,63,236,262,313,315,9.66,-1.4,-0.88,-27.19,-27.56,2.12,0.3,-0.7,-0.61,-0.61,-0.18,1.15,1.03,3.0,3.0,3.0
798,7.739868,t,274,168,164,63,238,264,314,313,9.66,-1.39,-0.94,-29.5,-27.87,0.06,0.29,-0.71,-0.6,-0.6,-0.37,1.51,1.02,3.0,3.0,3.0
799,7.754871,t,282,167,166,68,246,265,313,309,9.64,-1.35,-1.1,-43.56,-28.37,-6.56,0.29,-0.71,-0.6,-0.6,-0.38,1.06,1.23,3.0,3.0,3.0
800,7.769875,t,284,166,162,63,240,266,312,316,9.64,-1.33,-1.16,-53.75,-29.06,-10.19,0.28,-0.71,-0.6,-0.6,-0.22,0.35,1.18,3.0,3.0,3.0
801,7.785878,t,287,166,162,63,245,267,313,309,9.64,-1.29,-1.23,-63.13,-29.37,-13.81,0.28,-0.72,-0.6,-0.6,0.0,-0.53,1.06,3.0,3.0,3.0
802,7.800882,t,288,163,166,66,252,274,318,316,9.63,-1.25,-1.29,-70.75,-29.31,-16.0,0.27,-0.72,-0.6,-0.6,0.56,-1.9,0.32,3.0,3.0,3.0
803,7.815885,t,286,160,159,63,246,266,310,319,9.63,-1.11,-1.45,-68.37,-16.62,-16.44,0.25,-0.73,-0.6,-0.6,1.29,-2.25,-0.52,3.0,3.0,3.0
804,7.830889,t,289,172,160,62,248,266,309,319,9.63,-1.11,-1.45,-68.37,-16.62,-16.44,0.25,-0.73,-0.6,-0.6,1.29,-2.25,-0.52,3.0,3.0,3.0
805,7.845892,t,275,205,174,67,258,285,335,331,9.63,-1.04,-1.5,-38.94,-9.81,-11.75,0.24,-0.73,-0.6,-0.6,0.69,-1.27,2.42,3.0,3.0,3.0
806,7.860896,t,253,201,160,61,236,262,306,297,9.63,-1.02,-1.52,-29.19,-8.56,-9.13,0.24,-0.73,-0.6,-0.6,0.56,-0.77,3.28,3.0,3.0,3.0
807,7.875899,t,271,228,180,70,241,267,319,309,9.63,-0.98,-1.55,-32.94,-6.0,-6.56,0.23,-0.73,-0.6,-0.6,0.73,0.21,5.53,3.0,3.0,3.0
808,7.889902,t,267,241,186,81,241,264,317,306,9.63,-0.93,-1.57,-51.88,0.19,-9.75,0.23,-0.74,-0.61,-0.61,2.17,-0.78,6.17,3.0,3.0,3.0
809,7.904905,t,262,251,189,82,239,258,314,306,9.63,-0.89,-1.57,-68.81,7.56,-11.38,0.22,-0.74,-0.61,-0.61,3.82,-1.75,5.83,3.0,3.0,3.0
810,7.919909,t,256,277,197,82,232,249,308,298,9.65,-0.81,-1.5,-89.62,39.5,-7.31,0.21,-0.74,-0.62,-0.62,7.22,-3.77,3.79,3.0,3.0,3.0
811,7.934912,t,248,292,201,82,226,238,302,283,9.67,-0.79,-1.4,-78.94,61.44,-1.0,0.21,-0.73,-0.62,-0.62,6.75,-2.9,3.41,3.0,3.0,3.0
812,7.950916,t,244,298,204,78,216,230,278,272,9.69,-0.79,-1.1,-15.06,105.37,7.12,0.21,-0.72,-0.64,-0.64,4.55,2.45,4.62,3.0,3.0,3.0
813,7.964919,t,251,275,190,72,190,223,243,231,9.73,-0.8,-0.88,2.19,149.06,-4.25,0.21,-0.71,-0.65,-0.65,2.87,4.54,3.4,3.0,3.0,3.0
814,7.979922,t,269,263,182,67,183,225,227,222,9.76,-0.78,-0.36,-12.69,163.5,-10.44,0.21,-0.7,-0.66,-0.66,3.34,4.79,1.19,3.0,3.0,3.0
815,7.995926,t,265,244,175,66,172,220,219,213,9.77,-0.75,-0.08,-34.56,169.5,-13.44,0.21,-0.69,-0.67,-0.67,3.5,5.04,0.18,3.0,3.0,3.0
816,8.010929,t,253,224,171,62,162,210,204,205,9.77,-0.73,0.19,-54.31,172.25,-14.25,0.2,-0.68,-0.68,-0.68,3.73,4.93,-0.79,3.0,3.0,3.0
817,8.024932,t,240,188,178,68,166,209,198,210,9.75,-0.71,0.72,-91.25,158.12,-10.44,0.19,-0.66,-0.72,-0.72,3.69,4.13,-3.21,3.0,3.0,3.0
818,8.040936,t,230,179,171,65,159,190,177,191,9.7,-0.73,1.16,-117.62,131.69,-1.44,0.19,-0.65,-0.72,-0.72,3.16,3.3,-3.4,3.0,3.0,3.0
819,8.054939,t,222,173,174,65,162,185,166,183,9.68,-0.76,1.34,-121.12,118.81,4.37,0.18,-0.65,-0.73,-0.73,1.2,0.32,-4.16,3.0,3.0,3.0
820,8.069944,t,202,158,171,65,159,174,158,173,9.62,-0.85,1.65,-100.5,97.56,11.0,0.17,-0.64,-0.74,-0.74,0.19,-0.42,-4.22,3.0,3.0,3.0
821,8.085947,t,200,164,173,66,155,174,156,173,9.59,-0.89,1.79,-55.5,85.62,7.5,0.17,-0.63,-0.75,-0.75,-0.48,-2.4,-3.88,3.0,3.0,3.0
822,8.09995,t,195,160,174,66,150,168,152,165,9.54,-0.94,2.05,-35.69,82.06,5.12,0.17,-0.62,-0.76,-0.76,-0.09,-3.13,-3.94,3.0,3.0,3.0
823,8.114953,t,188,154,178,66,145,164,154,157,9.51,-0.96,2.18,-12.81,80.69,5.12,0.17,-0.62,-0.76,-0.76,-0.16,-2.97,-3.78,3.0,3.0,3.0
824,8.129957,t,181,167,181,68,134,156,151,144,9.44,-0.97,2.46,28.94,86.44,9.63,0.17,-0.6,-0.78,-0.78,-1.35,-1.73,-3.49,3.0,3.0,3.0
825,8.14496,t,168,171,186,67,132,150,147,143,9.4,-0.97,2.61,42.94,85.62,12.13,0.18,-0.6,-0.78,-0.78,-1.53,-1.4,-3.74,3.0,3.0,3.0
826,8.159963,t,152,167,185,67,131,144,139,139,9.36,-0.96,2.75,52.25,84.44,12.0,0.18,-0.59,-0.78,-0.78,-1.54,-0.95,-3.77,3.0,3.0,3.0
827,8.174966,t,141,171,184,67,129,138,134,137,9.31,-0.95,2.9,85.31,77.87,4.5,0.19,-0.58,-0.79,-0.79,-1.72,-0.21,-3.41,3.0,3.0,3.0
828,8.189984,t,123,171,190,67,126,132,130,136,9.19,-0.83,3.31,94.62,73.81,1.56,0.2,-0.57,-0.79,-0.79,-1.66,0.04,-3.53,3.0,3.0,3.0
829,8.204987,t,109,175,190,68,123,129,130,134,9.15,-0.77,3.43,102.44,68.37,-0.5,0.2,-0.56,-0.8,-0.8,-1.83,0.25,-3.61,3.0,3.0,3.0
830,8.219991,t,104,180,190,70,125,129,130,131,9.11,-0.7,3.65,112.31,56.81,-3.31,0.22,-0.54,-0.8,-0.8,-2.42,0.8,-3.69,3.0,3.0,3.0
831,8.234994,t,91,191,188,74,127,131,136,130,9.01,-0.47,3.82,108.5,44.13,-5.0,0.22,-0.54,-0.8,-0.8,-2.53,1.32,-3.38,3.0,3.0,3.0
832,8.249997,t,87,197,184,75,127,129,137,127,8.99,-0.4,3.88,102.06,37.88,-4.5,0.22,-0.54,-0.81,-0.81,-2.52,1.54,-3.29,3.0,3.0,3.0
833,8.265001,t,88,206,190,78,136,137,149,130,8.97,-0.33,3.94,91.75,30.62,-3.5,0.23,-0.53,-0.81,-0.81,-2.43,1.76,-3.09,3.0,3.0,3.0
834,8.280004,t,86,207,184,72,131,130,152,124,8.95,-0.28,3.98,60.44,16.0,-0.75,0.23,-0.53,-0.81,-0.81,-2.16,2.04,-2.35,3.0,3.0,3.0
835,8.295008,t,85,226,182,75,151,133,162,115,8.93,-0.19,4.03,24.19,3.0,-0.69,0.23,-0.52,-0.81,-0.81,-1.99,1.8,-2.04,3.0,3.0,3.0
836,8.310011,t,84,226,170,75,148,133,162,116,8.94,-0.18,4.02,8.81,-2.94,-1.31,0.23,-0.52,-0.81,-0.81,-2.07,1.65,-1.77,3.0,3.0,3.0
837,8.325014,t,82,224,166,72,150,140,163,115,8.94,-0.18,4.01,-4.31,-9.69,-1.06,0.23,-0.53,-0.81,-0.81,-1.96,1.58,-1.23,3.0,3.0,3.0
838,8.340018,t,83,222,163,69,151,145,165,114,8.95,-0.19,3.98,-21.56,-25.19,2.94,0.23,-0.53,-0.8,-0.8,-2.17,1.09,-1.15,3.0,3.0,3.0
839,8.355021,t,83,225,165,72,161,163,188,117,9.02,-0.27,3.82,-28.31,-41.13,7.75,0.23,-0.54,-0.8,-0.8,-2.02,0.95,-0.98,3.0,3.0,3.0
840,8.370025,t,87,215,160,70,152,160,188,114,9.05,-0.3,3.74,-34.06,-47.69,8.69,0.23,-0.54,-0.8,-0.8,-2.03,0.75,-0.81,3.0,3.0,3.0
841,8.385029,t,90,218,160,69,152,171,201,113,9.08,-0.34,3.66,-40.06,-52.06,7.94,0.22,-0.55,-0.8,-0.8,-1.94,0.65,-0.62,3.0,3.0,3.0
842,8.400032,t,88,218,156,68,151,176,222,112,9.15,-0.41,3.48,-50.19,-58.06,3.44,0.21,-0.56,-0.79,-0.79,-0.5,0.28,0.74,3.0,3.0,3.0
843,8.415035,t,86,220,147,69,152,183,233,112,9.19,-0.45,3.38,-49.75,-57.63,0.31,0.21,-0.56,-0.79,-0.79,0.1,0.16,1.26,3.0,3.0,3.0
844,8.430039,t,83,226,148,67,156,188,239,114,9.25,-0.5,3.2,-42.5,-52.81,2.25,0.21,-0.57,-0.79,-0.79,1.41,-0.48,2.57,3.0,3.0,3.0
845,8.445042,t,82,238,150,72,162,191,240,114,9.27,-0.53,3.12,-30.75,-35.44,10.0,0.2,-0.58,-0.78,-0.78,2.76,-1.06,4.4,3.0,3.0,3.0
846,8.460045,t,78,242,150,71,172,197,218,104,9.3,-0.57,3.03,7.0,-23.31,15.25,0.21,-0.58,-0.78,-0.78,3.11,-0.93,5.45,3.0,3.0,3.0
847,8.475048,t,85,243,151,71,171,198,206,98,9.31,-0.59,3.01,24.12,-11.0,18.81,0.21,-0.58,-0.78,-0.78,3.75,0.53,7.33,3.0,3.0,3.0
848,8.490052,t,85,244,151,71,166,196,203,96,9.3,-0.62,3.04,36.44,13.56,19.94,0.21,-0.58,-0.78,-0.78,3.43,0.61,7.16,3.0,3.0,3.0
849,8.505055,t,78,246,163,61,154,190,207,91,9.26,-0.63,3.16,59.56,40.19,20.56,0.22,-0.57,-0.78,-0.78,1.2,0.73,5.49,3.0,3.0,3.0
850,8.520059,t,81,241,167,61,139,180,210,91,9.23,-0.62,3.25,65.37,50.0,21.87,0.23,-0.56,-0.78,-0.78,0.25,1.5,4.61,3.0,3.0,3.0
851,8.535062,t,81,240,170,66,142,183,228,98,9.19,-0.63,3.34,59.44,54.63,23.0,0.24,-0.56,-0.79,-0.79,-2.64,3.5,0.97,3.0,3.0,3.0
852,8.550065,t,82,235,164,65,132,163,220,95,9.16,-0.64,3.43,16.81,42.44,21.31,0.24,-0.55,-0.79,-0.79,-3.15,4.0,-0.34,3.0,3.0,3.0
853,8.565091,t,92,240,168,66,147,174,244,115,9.1,-0.76,3.55,-32.13,11.38,22.94,0.24,-0.55,-0.79,-0.79,-3.72,3.61,-2.96,3.0,3.0,3.0
854,8.580098,t,98,246,178,71,160,188,257,126,9.1,-0.82,3.54,-38.38,-7.62,21.37,0.24,-0.55,-0.79,-0.79,-2.84,2.2,-4.14,3.0,3.0,3.0
855,8.595101,t,97,255,191,79,169,202,267,130,9.12,-0.86,3.48,-31.06,-30.62,14.06,0.24,-0.56,-0.79,-0.79,-0.73,2.31,-4.18,3.0,3.0,3.0
856,8.610105,t,78,266,235,87,210,237,302,146,9.21,-0.85,3.23,-12.06,-93.06,-12.75,0.23,-0.57,-0.78,-0.78,15.88,-6.16,-1.19,3.0,3.0,3.0
857,8.626108,t,74,242,251,82,210,221,292,166,9.31,-0.79,2.96,40.44,-74.44,-11.56,0.23,-0.58,-0.77,-0.77,14.33,-10.22,1.49,3.0,3.0,3.0
858,8.641112,t,88,238,251,81,204,219,294,202,9.32,-0.73,2.95,118.81,-17.81,4.69,0.24,-0.58,-0.77,-0.77,10.61,-8.99,5.19,3.0,3.0,3.0
859,8.655115,t,96,279,246,77,201,240,314,247,9.24,-0.71,3.2,117.94,78.0,53.44,0.26,-0.56,-0.77,-0.77,-7.07,7.24,-2.14,3.0,3.0,3.0
860,8.670118,t,95,292,249,77,208,258,324,255,9.2,-0.81,3.29,-12.56,57.63,58.88,0.26,-0.56,-0.78,-0.78,-9.22,8.37,-7.84,3.0,3.0,3.0
861,8.686123,t,78,278,262,83,214,263,330,265,9.18,-1.0,3.29,-75.31,-17.12,18.81,0.26,-0.56,-0.78,-0.78,-6.36,8.0,-10.41,3.0,3.0,3.0
862,8.701125,t,73,232,269,82,220,265,314,267,9.21,-1.04,3.18,-55.88,-64.62,7.19,0.25,-0.57,-0.77,-0.77,-2.72,5.1,-4.4,3.0,3.0,3.0
863,8.715129,t,72,215,276,84,222,266,312,265,9.26,-1.08,3.03,-73.94,-85.31,3.81,0.25,-0.58,-0.77,-0.77,0.18,0.95,0.0,3.0,3.0,3.0
864,8.730132,t,74,222,285,87,220,264,319,262,9.3,-1.16,2.86,-124.44,-91.0,6.56,0.24,-0.59,-0.76,-0.76,5.23,-8.62,-2.3,3.0,3.0,3.0
865,8.745135,t,88,226,272,85,211,258,338,264,9.35,-1.47,2.53,-133.81,-23.81,20.19,0.22,-0.6,-0.76,-0.76,1.71,-5.6,-2.72,3.0,3.0,3.0
866,8.760139,t,93,222,270,82,208,258,337,272,9.36,-1.53,2.48,-93.5,-18.06,12.44,0.22,-0.61,-0.76,-0.76,0.22,-3.84,-3.51,3.0,3.0,3.0
867,8.776143,t,92,211,266,78,206,262,333,278,9.36,-1.57,2.43,-58.38,-22.69,7.31,0.22,-0.61,-0.76,-0.76,-1.03,-1.09,-3.2,3.0,3.0,3.0
868,8.790146,t,92,200,261,78,211,262,331,298,9.4,-1.61,2.24,-22.25,-40.13,-1.06,0.21,-0.62,-0.75,-0.75,-0.46,-0.39,-1.53,3.0,3.0,3.0
869,8.806162,t,91,200,261,80,213,261,341,302,9.42,-1.62,2.16,-27.56,-45.25,-2.37,0.21,-0.62,-0.75,-0.75,0.04,-0.92,-1.4,3.0,3.0,3.0
870,8.820165,t,90,205,261,82,214,262,346,304,9.44,-1.63,2.07,-29.94,-47.88,-0.25,0.21,-0.63,-0.75,-0.75,0.23,-1.22,-1.32,3.0,3.0,3.0
871,8.835168,t,101,212,254,82,215,260,362,303,9.45,-1.64,1.99,-29.0,-46.69,6.31,0.21,-0.63,-0.75,-0.75,-0.08,-0.15,-1.69,3.0,3.0,3.0
872,8.851172,t,107,208,248,80,208,258,357,312,9.48,-1.68,1.82,-32.75,-44.19,5.56,0.2,-0.64,-0.74,-0.74,-0.25,0.32,-0.81,3.0,3.0,3.0
873,8.865188,t,122,208,249,80,214,265,374,314,9.5,-1.72,1.65,-54.5,-42.25,2.19,0.2,-0.64,-0.74,-0.74,-0.37,0.9,-0.24,3.0,3.0,3.0
874,8.880192,t,132,201,245,82,219,277,406,333,9.52,-1.74,1.56,-68.44,-43.13,1.31,0.19,-0.65,-0.73,-0.73,-0.02,1.33,0.42,3.0,3.0,3.0
875,8.895195,t,143,194,235,83,220,276,411,330,9.53,-1.77,1.46,-85.44,-45.31,1.81,0.18,-0.66,-0.73,-0.73,-0.11,1.41,0.09,3.0,3.0,3.0
876,8.910198,t,153,191,231,80,220,281,425,339,9.55,-1.83,1.24,-107.0,-48.31,3.12,0.18,-0.66,-0.73,-0.73,-0.11,1.22,-0.18,3.0,3.0,3.0
877,8.925202,t,159,194,227,80,231,285,427,335,9.56,-1.85,1.13,-109.37,-47.75,2.62,0.17,-0.66,-0.73,-0.73,-0.2,0.44,-0.53,3.0,3.0,3.0
878,8.941205,t,174,180,208,78,220,265,390,328,9.57,-1.89,0.91,-93.62,-39.63,0.13,0.15,-0.68,-0.72,-0.72,-0.52,-0.56,-0.49,3.0,3.0,3.0
879,8.955208,t,181,174,205,76,218,265,392,328,9.58,-1.92,0.73,-88.5,-36.0,-0.62,0.15,-0.68,-0.72,-0.72,-0.63,-0.44,-0.56,3.0,3.0,3.0
880,8.971212,t,187,172,202,73,220,264,390,327,9.59,-1.93,0.64,-85.62,-32.94,-2.44,0.14,-0.68,-0.72,-0.72,-0.59,-0.31,-0.47,3.0,3.0,3.0
881,8.986215,t,189,168,201,73,222,262,371,326,9.59,-1.93,0.57,-83.94,-30.31,-4.06,0.13,-0.69,-0.71,-0.71,-0.4,-0.26,0.03,3.0,3.0,3.0
882,9.000219,t,196,156,191,73,221,259,353,319,9.6,-1.93,0.35,-86.31,-26.81,-2.12,0.12,-0.69,-0.71,-0.71,-0.38,0.17,0.19,3.0,3.0,3.0
883,9.015222,t,209,154,186,72,224,262,349,319,9.6,-1.93,0.27,-89.5,-27.37,0.0,0.12,-0.7,-0.71,-0.71,-0.27,0.22,0.16,3.0,3.0,3.0
884,9.030225,t,215,152,183,69,227,266,345,319,9.6,-1.94,0.19,-91.0,-27.62,1.69,0.11,-0.7,-0.71,-0.71,-0.3,0.43,0.17,3.0,3.0,3.0
885,9.045229,t,219,146,177,63,227,263,340,322,9.6,-1.95,0.12,-91.56,-27.5,2.25,0.11,-0.7,-0.7,-0.7,-0.37,0.55,0.2,3.0,3.0,3.0
886,9.060232,t,231,146,173,63,227,260,338,335,9.61,-1.95,-0.09,-87.81,-25.5,-2.44,0.09,-0.71,-0.7,-0.7,-0.55,0.36,0.5,3.0,3.0,3.0
887,9.075236,t,248,149,160,62,228,261,334,306,9.61,-1.94,-0.16,-84.0,-25.0,-4.69,0.09,-0.71,-0.7,-0.7,-0.44,0.19,0.68,3.0,3.0,3.0
888,9.090239,t,255,156,161,66,239,278,342,311,9.61,-1.93,-0.23,-81.19,-24.62,-5.31,0.08,-0.71,-0.69,-0.69,-0.46,0.0,0.65,3.0,3.0,3.0
889,9.105242,t,256,152,159,62,230,264,328,304,9.61,-1.91,-0.3,-72.44,-24.25,-4.75,0.07,-0.72,-0.69,-0.69,-0.77,-0.21,-0.04,3.0,3.0,3.0
890,9.120246,t,262,154,160,62,233,264,325,307,9.61,-1.89,-0.42,-65.75,-24.5,-5.75,0.07,-0.72,-0.69,-0.69,-0.48,-0.2,0.15,3.0,3.0,3.0
891,9.135249,t,266,153,159,62,235,264,322,309,9.61,-1.85,-0.54,-59.88,-22.87,-9.25,0.06,-0.72,-0.68,-0.68,0.1,-0.4,0.61,3.0,3.0,3.0
892,9.150252,t,266,150,158,62,236,263,322,307,9.61,-1.83,-0.59,-59.13,-22.12,-10.06,0.05,-0.73,-0.68,-0.68,0.3,-0.22,0.48,3.0,3.0,3.0
893,9.165256,t,269,153,160,62,240,264,327,317,9.61,-1.78,-0.69,-53.69,-19.5,-10.25,0.05,-0.73,-0.68,-0.68,0.5,-0.19,0.55,3.0,3.0,3.0
894,9.18026,t,268,158,164,68,252,277,337,318,9.61,-1.76,-0.74,-50.06,-18.25,-9.88,0.04,-0.73,-0.68,-0.68,0.44,-0.41,1.14,3.0,3.0,3.0
895,9.195263,t,270,156,162,66,245,265,323,314,9.61,-1.74,-0.78,-50.38,-17.19,-9.38,0.04,-0.73,-0.68,-0.68,0.46,-0.67,1.2,3.0,3.0,3.0
896,9.210266,t,266,166,167,67,246,271,325,315,9.62,-1.66,-0.9,-67.5,-9.13,-10.31,0.03,-0.73,-0.67,-0.67,0.74,-1.07,0.43,3.0,3.0,3.0
897,9.22527,t,266,174,168,67,245,269,318,313,9.62,-1.63,-0.93,-67.12,-4.69,-11.5,0.02,-0.73,-0.67,-0.67,0.86,-0.69,0.58,3.0,3.0,3.0
898,9.240273,t,258,191,169,66,238,265,310,300,9.62,-1.6,-0.95,-61.13,-1.12,-11.94,0.02,-0.73,-0.67,-0.67,0.82,-0.23,0.99,3.0,3.0,3.0
899,9.255276,t,257,201,166,65,229,258,309,301,9.63,-1.57,-0.96,-52.19,3.06,-11.0,0.01,-0.73,-0.67,-0.67,0.22,0.77,3.54,3.0,3.0,3.0
900,9.27028,t,255,219,170,66,229,255,310,298,9.63,-1.52,-0.97,-56.19,4.0,-10.88,0.01,-0.73,-0.67,-0.67,0.47,0.57,4.42,3.0,3.0,3.0
901,9.285283,t,243,238,172,70,226,250,310,291,9.64,-1.45,-0.97,-81.19,15.13,-12.38,0.0,0.73,0.67,0.67,1.85,-1.16,4.29,3.0,3.0,3.0
902,9.300299,t,237,255,176,72,226,246,304,290,9.65,-1.42,-0.96,-91.94,35.88,-11.0,0.02,0.73,0.67,0.67,4.85,-2.6,4.65,3.0,3.0,3.0
903,9.315302,t,227,278,190,73,221,238,301,287,9.67,-1.36,-0.85,-93.31,53.13,-7.31,0.02,0.73,0.68,0.68,5.84,-2.95,4.17,3.0,3.0,3.0
904,9.330319,t,217,297,197,72,220,228,290,278,9.68,-1.34,-0.75,-82.75,72.37,-2.37,0.03,0.72,0.68,0.68,6.25,-1.88,3.27,3.0,3.0,3.0
905,9.345321,t,210,299,204,68,191,214,254,241,9.7,-1.34,-0.43,-24.56,112.37,2.31,0.04,0.7,0.7,0.7,5.26,1.31,3.44,3.0,3.0,3.0
906,9.360325,t,227,289,202,66,182,212,239,229,9.71,-1.34,-0.21,-3.06,133.62,-1.81,0.04,0.69,0.71,0.71,2.91,5.26,2.24,3.0,3.0,3.0
907,9.375329,t,235,273,191,65,170,214,228,215,9.71,-1.29,0.32,-2.19,169.44,-19.19,0.04,0.68,0.72,0.72,2.81,6.08,1.26,3.0,3.0,3.0
908,9.390331,t,244,244,190,62,159,215,216,203,9.7,-1.24,0.62,-15.75,178.31,-26.75,0.05,0.67,0.73,0.73,3.04,6.61,0.02,3.0,3.0,3.0
909,9.405335,t,250,228,186,62,160,214,203,198,9.68,-1.19,1.2,-86.87,168.94,-38.19,0.07,0.64,0.76,0.76,5.45,6.71,-2.75,3.0,3.0,3.0
910,9.420339,t,241,174,181,59,148,200,173,180,9.59,-1.07,1.7,-117.12,154.69,-34.5,0.08,0.63,0.76,0.76,5.49,6.39,-3.15,3.0,3.0,3.0
911,9.435341,t,232,166,176,59,149,187,160,176,9.55,-1.07,1.9,-142.56,140.19,-27.69,0.09,0.62,0.77,0.77,4.72,4.28,-3.52,3.0,3.0,3.0
912,9.450346,t,215,161,177,58,147,177,155,168,9.51,-1.09,2.09,-158.94,130.56,-19.56,0.1,0.61,0.77,0.77,3.39,2.96,-4.25,3.0,3.0,3.0
913,9.465349,t,208,153,176,58,149,171,149,161,9.47,-1.13,2.25,-164.0,120.12,-13.69,0.13,0.58,0.78,0.78,0.61,-0.29,-5.16,3.0,3.0,3.0
914,9.480352,t,194,144,176,69,143,165,152,155,9.34,-1.24,2.7,-118.69,105.31,-15.88,0.14,0.57,0.79,0.79,0.33,-0.84,-5.2,3.0,3.0,3.0
915,9.495356,t,191,142,172,65,130,153,146,152,9.29,-1.26,2.84,-98.19,100.87,-16.69,0.15,0.57,0.79,0.79,0.55,-1.34,-5.35,3.0,3.0,3.0
916,9.510359,t,190,144,178,67,126,150,144,145,9.25,-1.28,2.98,-72.5,98.75,-13.63,0.16,0.55,0.8,0.8,0.51,-1.83,-5.42,3.0,3.0,3.0
917,9.525378,t,190,144,179,66,122,146,143,142,9.15,-1.28,3.27,-21.12,95.62,-9.0,0.16,0.54,0.8,0.8,-1.04,-2.12,-4.9,3.0,3.0,3.0
918,9.540381,t,178,146,178,67,120,138,142,137,9.1,-1.27,3.41,0.0,88.44,-6.0,0.17,0.54,0.8,0.8,-0.61,-1.52,-5.32,3.0,3.0,3.0
919,9.555384,t,172,144,176,67,115,131,142,131,9.05,-1.25,3.54,19.0,82.5,-6.94,0.17,0.53,0.81,0.82,-1.29,-0.56,-4.93,3.0,3.0,3.0
920,9.570388,t,158,153,180,69,120,130,145,134,8.9,-1.08,3.95,65.56,80.19,-21.69,0.17,0.52,0.82,0.82,-1.73,-0.17,-4.78,3.0,3.0,3.0
921,9.584391,t,146,159,182,66,113,121,131,122,8.86,-0.99,4.08,73.94,76.31,-25.5,0.17,0.51,0.83,0.83,-2.48,0.69,-4.13,3.0,3.0,3.0
922,9.600395,t,131,158,180,63,114,121,127,121,8.81,-0.89,4.2,75.31,71.56,-27.56,0.17,0.51,0.83,0.83,-2.78,0.8,-3.97,3.0,3.0,3.0
923,9.614398,t,118,162,174,63,114,118,130,120,8.77,-0.79,4.31,67.56,57.13,-27.81,0.17,0.5,0.84,0.84,-3.17,0.63,-4.05,3.0,3.0,3.0
924,9.6294,t,100,182,178,66,118,112,140,119,8.67,-0.54,4.54,54.69,36.25,-23.5,0.16,0.5,0.84,0.84,-3.06,0.47,-3.98,3.0,3.0,3.0
925,9.644404,t,95,189,181,69,120,108,146,118,8.65,-0.47,4.58,48.56,25.0,-21.37,0.16,0.5,0.84,0.84,-2.95,0.27,-3.91,3.0,3.0,3.0
926,9.659408,t,88,197,182,73,122,109,152,112,8.64,-0.4,4.61,38.88,6.31,-19.25,0.16,0.5,0.84,0.84,-2.13,0.0,-3.32,3.0,3.0,3.0
927,9.674411,t,89,199,176,74,127,112,160,105,8.64,-0.29,4.62,34.81,-0.69,-18.75,0.16,0.5,0.84,0.84,-1.84,-0.22,-3.15,3.0,3.0,3.0
928,9.689415,t,85,209,168,74,130,116,157,99,8.64,-0.23,4.61,31.87,-6.44,-18.31,0.16,0.5,0.84,0.84,-1.65,-0.04,-2.89,3.0,3.0,3.0
929,9.704418,t,86,214,154,67,125,119,150,91,8.67,-0.15,4.57,2.25,-23.19,-14.38,0.16,0.51,0.84,0.84,-1.53,1.03,-1.56,3.0,3.0,3.0
930,9.720422,t,87,208,150,60,126,125,149,88,8.71,-0.12,4.49,-13.69,-29.06,-11.13,0.16,0.51,0.84,0.84,-1.57,1.1,-1.29,3.0,3.0,3.0
931,9.734425,t,92,206,147,61,126,127,156,88,8.74,-0.14,4.44,-31.31,-35.13,-6.94,0.17,0.51,0.84,0.84,-1.83,1.5,-0.85,3.0,3.0,3.0
932,9.749428,t,101,203,145,60,124,134,158,85,8.77,-0.17,4.38,-49.25,-41.19,-3.44,0.17,0.52,0.83,0.83,-2.05,2.02,-0.59,3.0,3.0,3.0
933,9.764432,t,110,204,140,61,125,140,172,88,8.85,-0.28,4.21,-96.69,-66.62,-2.19,0.18,0.52,0.82,0.82,-1.56,2.16,-0.66,3.0,3.0,3.0
934,9.779435,t,106,207,130,60,125,142,178,90,8.95,-0.4,3.98,-103.31,-73.5,-6.94,0.18,0.53,0.82,0.82,-1.19,1.84,-0.58,3.0,3.0,3.0
935,9.794439,t,110,206,123,61,122,150,189,90,9.0,-0.45,3.86,-99.75,-76.75,-12.31,0.19,0.53,0.81,0.81,-0.66,1.41,-0.33,3.0,3.0,3.0
936,9.809454,t,112,210,122,62,126,159,196,91,9.05,-0.48,3.73,-86.06,-74.44,-17.19,0.19,0.53,0.81,0.81,1.25,-0.63,2.21,3.0,3.0,3.0
937,9.824458,t,108,207,123,62,131,162,194,90,9.09,-0.49,3.62,-64.0,-67.12,-19.69,0.2,0.54,0.8,0.8,2.64,-1.5,4.59,3.0,3.0,3.0
938,9.839461,t,96,219,137,67,141,186,186,94,9.17,-0.45,3.42,24.37,-28.81,-2.44,0.2,0.55,0.8,0.8,3.59,-0.91,5.99,3.0,3.0,3.0
939,9.854465,t,94,217,135,63,135,179,162,88,9.18,-0.44,3.4,44.19,-15.63,6.37,0.19,0.55,0.8,0.8,3.9,-0.18,6.3,3.0,3.0,3.0
940,9.869479,t,95,219,141,63,134,183,154,87,9.18,-0.43,3.4,52.31,-1.94,13.0,0.19,0.55,0.8,0.8,4.04,0.54,6.52,3.0,3.0,3.0
941,9.884483,t,92,222,146,62,121,180,144,83,9.15,-0.42,3.48,50.63,47.94,21.06,0.18,0.54,0.81,0.81,2.0,1.7,4.8,3.0,3.0,3.0
942,9.899486,t,95,225,146,60,123,169,145,83,9.12,-0.42,3.56,42.63,57.44,21.5,0.18,0.54,0.81,0.81,0.7,2.06,3.95,3.0,3.0,3.0
943,9.91449,t,96,223,146,59,120,161,150,83,9.05,-0.44,3.74,42.63,57.44,21.5,0.17,0.54,0.81,0.81,-0.44,2.47,2.96,3.0,3.0,3.0
944,9.929506,t,102,226,149,61,122,158,156,84,9.01,-0.45,3.9,-19.56,42.25,19.06,0.17,0.53,0.82,0.82,-3.07,4.16,0.01,3.0,3.0,3.0
945,9.944552,t,108,215,142,59,118,139,169,87,8.96,-0.55,3.94,-46.69,25.56,16.81,0.17,0.52,0.82,0.82,-3.36,4.19,-0.95,3.0,3.0,3.0
946,9.959555,t,105,218,142,59,114,127,181,88,8.94,-0.61,3.97,-46.69,25.56,16.81,0.18,0.52,0.82,0.82,-2.56,2.7,-3.58,3.0,3.0,3.0
947,9.974558,t,108,219,144,62,112,132,202,90,8.94,-0.76,3.94,-80.94,-13.5,14.19,0.18,0.52,0.82,0.82,-1.31,2.96,-4.17,3.0,3.0,3.0
948,9.989563,t,109,237,166,66,142,157,230,97,9.0,-0.89,3.77,-68.25,-60.06,9.13,0.18,0.53,0.81,0.81,5.46,2.42,-2.81,3.0,3.0,3.0
949,10.004565,t,95,254,190,72,159,177,234,96,9.05,-0.92,3.64,-5.75,-95.12,-19.12,0.18,0.54,0.8,0.8,12.21,-2.49,-2.25,3.0,3.0,3.0
950,10.019569,t,76,246,203,73,178,189,240,105,9.17,-0.81,3.37,49.44,-80.81,-31.0,0.18,0.55,0.8,0.8,12.82,-6.66,-0.92,3.0,3.0,3.0
951,10.034572,t,84,228,225,78,188,197,248,134,9.19,-0.69,3.33,141.94,-37.44,-23.69,0.18,0.55,0.8,0.8,7.27,-8.61,4.92,3.0,3.0,3.0
952,10.049575,t,96,246,213,74,191,202,265,174,9.14,-0.45,3.5,259.87,59.25,28.94,0.15,0.55,0.81,0.81,-3.88,2.59,3.26,3.0,3.0,3.0
953,10.064579,t,97,259,201,73,191,209,281,189,9.11,-0.43,3.6,168.81,57.19,50.31,0.14,0.55,0.82,0.82,-8.26,8.71,-7.67,3.0,3.0,3.0
954,10.079583,t,97,265,210,80,195,216,295,206,9.06,-0.62,3.68,-99.5,22.31,38.56,0.14,0.54,0.82,0.82,-9.08,8.46,-10.47,3.0,3.0,3.0
955,10.094585,t,88,257,223,80,199,218,294,222,9.06,-0.74,3.67,-134.94,1.5,21.37,0.14,0.54,0.82,0.82,-7.92,7.37,-10.2,3.0,3.0,3.0
956,10.109601,t,78,239,244,83,216,238,305,236,9.08,-0.83,3.59,-109.25,-41.5,11.06,0.15,0.55,0.81,0.81,-3.81,5.34,-7.31,3.0,3.0,3.0
957,10.124604,t,72,226,249,79,209,233,298,238,9.18,-0.97,3.29,-92.56,-92.31,15.38,0.15,0.55,0.8,0.8,3.8,-4.71,-1.67,3.0,3.0,3.0
958,10.139608,t,74,223,266,84,220,246,322,250,9.26,-1.19,2.97,-156.06,-80.56,24.5,0.16,0.56,0.79,0.79,3.84,-7.9,-3.41,3.0,3.0,3.0
959,10.154611,t,73,224,268,84,221,251,345,265,9.29,-1.32,2.83,-162.81,-61.94,27.44,0.16,0.56,0.79,0.79,2.74,-7.54,-3.09,3.0,3.0,3.0
960,10.169615,t,73,221,254,79,208,234,316,257,9.3,-1.42,2.73,-127.56,-43.94,26.62,0.17,0.56,0.78,0.78,1.55,-6.11,-3.03,3.0,3.0,3.0
961,10.184618,t,74,217,250,78,208,238,309,268,9.33,-1.56,2.58,-1.87,-23.12,12.38,0.17,0.56,0.78,0.78,-1.11,-0.17,-3.34,3.0,3.0,3.0
962,10.199621,t,74,216,246,79,208,240,310,278,9.34,-1.56,2.54,17.69,-27.75,6.87,0.17,0.57,0.78,0.78,-1.01,-0.06,-3.31,3.0,3.0,3.0
963,10.214625,t,74,222,253,79,211,242,312,288,9.35,-1.56,2.49,27.37,-35.25,3.87,0.16,0.57,0.77,0.77,-0.63,-0.21,-3.06,3.0,3.0,3.0
964,10.229628,t,74,225,256,79,213,242,315,289,9.37,-1.55,2.43,27.56,-41.13,4.31,0.16,0.57,0.77,0.77,0.5,0.1,-1.2,3.0,3.0,3.0
965,10.244632,t,76,232,246,80,212,245,319,290,9.41,-1.59,2.24,2.62,-40.0,12.94,0.15,0.58,0.77,0.77,0.37,1.08,-1.08,3.0,3.0,3.0
966,10.259635,t,78,238,238,79,211,246,324,295,9.42,-1.61,2.17,-12.0,-38.19,14.19,0.15,0.58,0.77,0.77,-0.19,1.84,-1.22,3.0,3.0,3.0
967,10.274638,t,85,238,231,78,210,246,324,300,9.43,-1.65,2.1,-30.69,-38.5,13.63,0.15,0.58,0.76,0.76,-0.41,2.81,-0.97,3.0,3.0,3.0
968,10.289643,t,98,222,226,78,209,247,334,299,9.45,-1.72,1.93,-71.62,-41.63,7.31,0.16,0.59,0.75,0.75,-0.04,2.63,-0.59,3.0,3.0,3.0
969,10.304646,t,105,218,224,78,208,248,338,307,9.47,-1.76,1.83,-91.75,-44.25,3.94,0.16,0.59,0.75,0.75,0.4,1.84,-0.55,3.0,3.0,3.0
970,10.319649,t,107,208,227,79,222,267,359,319,9.49,-1.83,1.62,-119.87,-44.94,0.31,0.17,0.59,0.74,0.74,0.42,1.37,-0.59,3.0,3.0,3.0
971,10.334652,t,114,207,224,79,222,264,357,314,9.5,-1.86,1.5,-127.69,-44.44,0.44,0.17,0.59,0.73,0.73,-0.13,-0.1,-1.04,3.0,3.0,3.0
972,10.349655,t,125,191,211,72,216,254,339,313,9.52,-1.93,1.28,-129.31,-41.94,1.69,0.19,0.59,0.73,0.73,-0.35,-0.59,-1.27,3.0,3.0,3.0
973,10.364659,t,127,190,206,69,215,251,342,319,9.53,-1.96,1.17,-122.0,-39.75,1.75,0.2,0.59,0.72,0.72,0.11,-1.3,-1.15,3.0,3.0,3.0
974,10.379662,t,127,190,202,68,212,248,343,319,9.54,-2.0,0.98,-101.44,-35.13,-0.44,0.2,0.6,0.71,0.71,0.08,-1.2,-0.97,3.0,3.0,3.0
975,10.394681,t,134,186,196,68,214,247,343,319,9.56,-2.02,0.82,-86.5,-28.44,-1.75,0.21,0.6,0.71,0.71,-0.23,-0.86,-0.74,3.0,3.0,3.0
976,10.409684,t,142,184,194,67,214,246,346,322,9.56,-2.03,0.74,-81.5,-26.94,-1.5,0.21,0.6,0.7,0.7,-0.42,-0.44,-0.24,3.0,3.0,3.0
977,10.424687,t,152,175,187,67,215,246,341,322,9.56,-2.04,0.67,-76.94,-30.44,1.25,0.22,0.6,0.7,0.7,-0.4,0.0,-0.02,3.0,3.0,3.0
978,10.439691,t,157,178,181,63,214,244,342,318,9.57,-2.05,0.59,-79.44,-32.88,2.87,0.22,0.6,0.69,0.69,-0.33,0.29,-0.35,3.0,3.0,3.0
979,10.454694,t,167,178,180,62,217,245,341,319,9.57,-2.07,0.42,-82.62,-34.31,3.37,0.23,0.6,0.68,0.68,-0.28,0.95,-0.14,3.0,3.0,3.0
980,10.469697,t,181,174,178,63,222,246,338,326,9.57,-2.09,0.25,-82.69,-33.69,2.19,0.23,0.6,0.67,0.67,-0.21,0.89,0.03,3.0,3.0,3.0
981,10.484701,t,181,170,178,63,224,250,336,324,9.57,-2.1,0.17,-82.06,-33.19,0.37,0.24,0.6,0.67,0.67,0.33,0.24,0.74,3.0,3.0,3.0
982,10.499704,t,188,166,175,62,222,246,338,324,9.57,-2.09,0.09,-79.06,-30.62,-3.37,0.24,0.6,0.67,0.67,0.34,0.02,0.91,3.0,3.0,3.0
983,10.514708,t,196,163,178,66,228,254,342,324,9.58,-2.08,-0.06,-77.94,-29.06,-3.12,0.24,0.6,0.66,0.66,-0.11,-0.2,0.72,3.0,3.0,3.0
984,10.529711,t,204,150,172,66,238,269,373,350,9.58,-2.08,-0.2,-76.87,-25.62,0.31,0.25,0.6,0.65,0.65,-0.37,-0.16,0.67,3.0,3.0,3.0
985,10.544715,t,208,146,165,62,226,250,336,326,9.57,-2.08,-0.27,-75.31,-24.12,1.69,0.25,0.6,0.65,0.65,-0.43,-0.14,0.47,3.0,3.0,3.0
986,10.559718,t,216,144,161,62,228,250,337,324,9.57,-2.08,-0.39,-59.06,-19.56,1.5,0.26,0.6,0.64,0.64,-0.29,0.0,0.2,3.0,3.0,3.0
987,10.574761,t,229,140,158,61,230,253,334,314,9.57,-2.07,-0.49,-52.69,-16.62,0.88,0.26,0.6,0.64,0.64,-0.54,0.06,0.37,3.0,3.0,3.0
988,10.589764,t,234,134,157,61,231,251,333,310,9.56,-2.07,-0.54,-49.56,-15.38,0.5,0.26,0.6,0.63,0.63,-0.78,0.09,0.83,3.0,3.0,3.0
989,10.604767,t,236,137,158,62,233,255,334,316,9.56,-2.06,-0.58,-50.06,-16.06,0.0,0.27,0.6,0.63,0.63,-0.73,-0.01,0.91,3.0,3.0,3.0
990,10.619771,t,239,138,156,62,234,257,334,317,9.56,-2.06,-0.63,-52.44,-17.5,-0.44,0.27,0.6,0.63,0.63,-0.57,-0.1,0.8,3.0,3.0,3.0
991,10.634774,t,250,141,156,66,250,276,343,326,9.56,-2.03,-0.78,-65.37,-17.06,-0.75,0.27,0.6,0.62,0.62,0.07,0.26,-0.05,3.0,3.0,3.0
992,10.649777,t,261,139,154,63,238,260,319,316,9.55,-2.02,-0.83,-69.69,-16.31,-0.25,0.28,0.59,0.62,0.62,-0.05,0.16,-0.23,3.0,3.0,3.0
993,10.664781,t,274,141,154,62,241,261,313,317,9.55,-2.01,-0.88,-73.0,-15.19,-0.81,0.28,0.59,0.61,0.61,-0.05,0.32,-0.18,3.0,3.0,3.0
994,10.679797,t,281,144,154,62,239,264,308,319,9.55,-1.99,-0.93,-83.31,-10.75,-4.44,0.29,0.59,0.61,0.61,0.81,0.32,-0.04,3.0,3.0,3.0
995,10.694812,t,277,160,155,66,247,281,339,319,9.55,-1.93,-1.05,-79.75,-3.69,-5.37,0.3,0.59,0.6,0.6,1.25,0.76,1.61,3.0,3.0,3.0
996,10.709816,t,280,163,155,62,234,263,314,304,9.55,-1.9,-1.07,-74.56,0.88,-4.69,0.3,0.58,0.59,0.59,1.13,0.94,2.52,3.0,3.0,3.0
997,10.724819,t,278,171,164,63,231,264,314,302,9.56,-1.87,-1.09,-65.19,10.13,-3.69,0.31,0.58,0.59,0.59,1.23,0.86,4.52,3.0,3.0,3.0
998,10.739823,t,263,190,175,67,235,263,326,300,9.56,-1.85,-1.09,-67.06,16.75,-4.12,0.31,0.58,0.59,0.59,1.68,-0.51,4.66,3.0,3.0,3.0
999,10.754826,t,254,189,172,67,230,252,324,301,9.57,-1.83,-1.07,-70.31,26.12,-4.06,0.32,0.58,0.59,0.59,2.73,-1.92,4.79,3.0,3.0,3.0
1000,10.76983,t,251,198,180,74,238,262,327,311,9.58,-1.81,-1.03,-69.87,35.38,-2.12,0.33,0.57,0.59,0.59,4.45,-3.31,5.04,3.0,3.0,3.0
1001,10.784833,t,208,246,190,76,222,238,304,290,9.6,-1.81,-0.77,-48.06,80.56,8.31,0.34,0.56,0.59,0.59,6.01,-0.81,3.86,3.0,3.0,3.0
1002,10.799836,t,198,262,187,73,201,210,266,264,9.61,-1.82,-0.61,-40.06,102.31,8.63,0.34,0.55,0.59,0.59,5.18,1.19,3.62,3.0,3.0,3.0
1003,10.81484,t,198,266,191,74,182,203,246,240,9.62,-1.82,-0.42,-23.81,121.0,5.94,0.36,0.54,0.6,0.6,4.21,3.28,3.33,3.0,3.0,3.0
1004,10.829843,t,203,259,191,73,155,200,224,213,9.63,-1.8,0.04,-0.37,151.31,-11.56,0.36,0.53,0.61,0.61,2.37,8.09,1.66,3.0,3.0,3.0
1005,10.844846,t,222,223,185,67,139,205,195,182,9.63,-1.69,0.61,-8.06,175.12,-40.31,0.38,0.51,0.62,0.62,2.86,8.23,1.21,3.0,3.0,3.0
1006,10.85985,t,230,205,185,63,132,206,182,178,9.63,-1.62,0.89,-28.0,176.87,-48.88,0.39,0.5,0.63,0.63,3.4,8.09,0.35,3.0,3.0,3.0
1007,10.874853,t,236,178,183,62,130,200,165,177,9.61,-1.54,1.16,-56.69,173.87,-52.13,0.42,0.49,0.63,0.63,5.02,7.68,-2.56,3.0,3.0,3.0
1008,10.889856,t,233,152,170,59,127,174,146,164,9.52,-1.41,1.86,-163.62,150.75,-42.81,0.44,0.46,0.63,0.63,4.31,7.18,-4.44,3.0,3.0,3.0
1009,10.90486,t,195,142,169,58,127,162,145,163,9.48,-1.42,2.03,-204.94,138.12,-35.75,0.46,0.45,0.63,0.63,3.7,5.69,-5.19,3.0,3.0,3.0
1010,10.919864,t,181,142,167,58,137,158,139,157,9.44,-1.46,2.18,-232.12,123.06,-25.69,0.47,0.43,0.62,0.62,3.0,3.88,-6.05,3.0,3.0,3.0
1011,10.934867,t,168,142,166,58,146,151,134,154,9.4,-1.52,2.3,-236.75,114.62,-18.75,0.5,0.4,0.61,0.61,1.66,0.57,-7.42,3.0,3.0,3.0
1012,10.94987,t,165,144,165,60,152,149,144,160,9.33,-1.64,2.53,-150.5,102.75,-20.06,0.52,0.38,0.6,0.6,0.8,-2.63,-6.59,3.0,3.0,3.0
1013,10.964874,t,161,146,160,58,135,134,132,148,9.24,-1.69,2.78,-112.75,101.12,-23.31,0.53,0.37,0.6,0.6,0.14,-2.97,-5.66,3.0,3.0,3.0
1014,10.979877,t,161,148,167,61,130,134,133,140,9.2,-1.69,2.91,-75.75,99.31,-24.0,0.54,0.36,0.6,0.6,-0.17,-3.07,-5.15,3.0,3.0,3.0
1015,10.99488,t,161,146,168,61,126,132,136,134,9.16,-1.67,3.05,-39.44,93.44,-21.12,0.54,0.36,0.6,0.6,-0.46,-3.14,-4.92,3.0,3.0,3.0
1016,11.009884,t,158,150,174,66,121,134,139,132,9.12,-1.65,3.18,25.81,80.0,-12.31,0.55,0.35,0.6,0.6,-1.91,-0.7,-4.52,3.0,3.0,3.0
1017,11.024888,t,152,163,183,66,118,130,140,122,9.0,-1.51,3.57,58.19,69.44,-16.19,0.56,0.35,0.61,0.61,-1.93,-0.03,-4.29,3.0,3.0,3.0
1018,11.039891,t,141,170,183,63,115,126,136,118,8.96,-1.44,3.69,60.94,66.69,-20.62,0.56,0.35,0.62,0.62,-2.31,0.62,-3.81,3.0,3.0,3.0
1019,11.054894,t,127,172,182,66,115,123,132,117,8.93,-1.36,3.8,59.25,61.69,-28.12,0.56,0.35,0.62,0.62,-2.5,0.74,-3.45,3.0,3.0,3.0
1020,11.069897,t,115,175,178,63,117,120,130,118,8.86,-1.2,4.01,56.69,57.69,-29.19,0.56,0.35,0.62,0.62,-2.48,0.65,-3.46,3.0,3.0,3.0
1021,11.084901,t,100,180,172,65,118,118,134,117,8.8,-1.04,4.18,50.81,46.44,-26.25,0.57,0.35,0.63,0.63,-2.49,0.38,-3.68,3.0,3.0,3.0
1022,11.099905,t,85,188,172,65,119,118,139,120,8.76,-0.9,4.3,48.81,31.06,-19.94,0.57,0.36,0.63,0.63,-2.35,0.3,-3.87,3.0,3.0,3.0
1023,11.114908,t,83,194,172,65,126,118,144,120,8.74,-0.84,4.35,47.13,22.75,-17.31,0.57,0.36,0.63,0.63,-2.33,0.71,-3.71,3.0,3.0,3.0
1024,11.129911,t,84,199,173,63,133,118,146,111,8.73,-0.79,4.37,42.75,14.06,-15.25,0.57,0.36,0.63,0.63,-2.35,0.86,-3.58,3.0,3.0,3.0
1025,11.144914,t,84,198,168,63,133,117,146,105,8.73,-0.74,4.39,36.69,6.06,-14.88,0.56,0.36,0.64,0.64,-2.59,1.19,-3.23,3.0,3.0,3.0
1026,11.159918,t,84,208,162,63,134,118,150,100,8.75,-0.65,4.37,19.12,-11.69,-16.5,0.56,0.37,0.64,0.64,-2.21,2.84,-1.5,3.0,3.0,3.0
1027,11.174921,t,82,212,156,61,129,125,139,94,8.78,-0.6,4.3,-8.56,-26.94,-16.25,0.56,0.37,0.63,0.63,-1.72,2.59,-1.07,3.0,3.0,3.0
1028,11.189938,t,81,206,155,63,137,136,148,95,8.81,-0.6,4.25,-24.37,-32.88,-14.63,0.56,0.37,0.63,0.63,-1.1,1.95,-0.42,3.0,3.0,3.0
1029,11.204941,t,79,208,152,61,130,131,145,88,8.84,-0.61,4.19,-40.31,-37.38,-11.69,0.57,0.37,0.63,0.63,-0.79,1.76,-0.24,3.0,3.0,3.0
1030,11.219943,t,89,209,149,62,127,138,162,89,8.93,-0.75,3.96,-92.06,-45.69,0.31,0.57,0.37,0.62,0.62,-0.2,1.47,-0.08,3.0,3.0,3.0
1031,11.234947,t,96,212,145,61,122,141,172,90,8.96,-0.83,3.88,-107.12,-46.94,3.87,0.57,0.37,0.61,0.61,-0.29,1.2,-0.06,3.0,3.0,3.0
1032,11.24995,t,96,216,144,62,123,147,182,91,8.99,-0.91,3.79,-116.62,-47.56,6.56,0.57,0.36,0.61,0.61,-0.33,0.88,0.11,3.0,3.0,3.0
1033,11.264976,t,95,218,148,68,136,170,204,97,9.02,-1.0,3.69,-118.75,-48.19,8.31,0.57,0.35,0.59,0.59,-0.35,0.52,0.29,3.0,3.0,3.0
1034,11.27997,t,90,225,145,63,134,175,200,93,9.1,-1.23,3.42,-78.12,-41.75,11.38,0.58,0.35,0.59,0.59,0.3,-1.23,2.07,3.0,3.0,3.0
1035,11.295013,t,88,226,146,63,135,177,197,93,9.12,-1.28,3.35,-54.5,-36.0,13.75,0.57,0.35,0.58,0.58,0.84,-1.36,3.58,3.0,3.0,3.0
1036,11.310017,t,87,230,148,66,145,187,191,92,9.13,-1.33,3.3,-32.06,-29.0,15.56,0.57,0.35,0.58,0.58,0.87,-1.25,4.19,3.0,3.0,3.0
1037,11.32502,t,86,227,148,67,149,200,196,94,9.14,-1.36,3.26,-12.06,-23.75,15.88,0.57,0.35,0.58,0.58,1.49,-0.88,5.12,3.0,3.0,3.0
1038,11.340024,t,86,224,142,59,140,182,183,89,9.16,-1.39,3.2,38.75,-8.88,15.81,0.57,0.35,0.59,0.59,2.4,0.0,5.69,3.0,3.0,3.0
1039,11.355027,t,86,227,146,62,139,190,200,91,9.15,-1.39,3.22,54.0,1.69,16.44,0.56,0.35,0.59,0.59,2.24,0.41,5.46,3.0,3.0,3.0
1040,11.37003,t,86,225,146,58,128,167,194,85,9.14,-1.38,3.26,66.56,13.88,16.25,0.56,0.35,0.59,0.59,1.8,0.81,4.98,3.0,3.0,3.0
1041,11.38504,t,80,224,148,57,127,158,206,86,9.1,-1.34,3.38,81.31,29.44,16.19,0.56,0.36,0.61,0.61,-0.33,2.51,2.24,3.0,3.0,3.0
1042,11.400043,t,79,219,148,56,129,159,208,86,9.08,-1.32,3.44,62.5,17.94,15.13,0.55,0.36,0.61,0.61,-0.65,3.57,0.24,3.0,3.0,3.0
1043,11.415047,t,79,213,152,57,134,161,212,87,9.06,-1.3,3.5,41.0,4.37,10.75,0.55,0.36,0.61,0.61,0.4,4.87,-0.75,3.0,3.0,3.0
1044,11.43005,t,88,215,160,58,146,168,223,91,9.07,-1.29,3.48,19.44,-12.88,5.56,0.55,0.36,0.61,0.61,1.84,6.11,-0.87,3.0,3.0,3.0
1045,11.445053,t,88,225,164,60,153,176,230,98,9.09,-1.3,3.43,-3.25,-31.94,0.5,0.55,0.37,0.61,0.61,3.72,4.22,-4.3,3.0,3.0,3.0
1046,11.460057,t,81,234,199,69,184,188,261,118,9.18,-1.28,3.17,-19.44,-39.88,-18.87,0.55,0.37,0.6,0.6,8.86,-0.24,-3.15,3.0,3.0,3.0
1047,11.47506,t,83,210,222,72,194,200,276,157,9.19,-1.23,3.18,63.38,-0.75,-15.0,0.55,0.38,0.6,0.6,5.42,-3.3,0.67,3.0,3.0,3.0
1048,11.490063,t,92,209,215,72,188,200,282,181,9.17,-1.14,3.28,145.81,39.31,-4.62,0.54,0.38,0.62,0.62,-3.1,-1.39,4.72,3.0,3.0,3.0
1049,11.505067,t,96,230,202,73,197,218,291,198,9.11,-1.11,3.44,9.63,30.87,28.5,0.54,0.38,0.62,0.62,-6.46,4.64,-1.93,3.0,3.0,3.0
1050,11.52007,t,99,242,200,74,200,248,329,235,9.1,-1.38,3.37,-170.5,-8.06,21.25,0.55,0.37,0.61,0.61,-6.03,3.48,-12.02,3.0,3.0,3.0
1051,11.535074,t,73,224,215,73,214,228,302,228,9.12,-1.47,3.28,-121.06,-36.75,12.31,0.55,0.36,0.61,0.61,-3.05,2.45,-8.29,3.0,3.0,3.0
1052,11.550078,t,71,215,218,78,217,232,296,232,9.15,-1.53,3.16,-88.62,-64.37,6.56,0.55,0.36,0.6,0.6,-0.52,0.94,-4.28,3.0,3.0,3.0
1053,11.565081,t,72,210,222,75,218,234,304,232,9.19,-1.58,3.01,-85.19,-77.94,1.06,0.54,0.36,0.59,0.59,4.2,-5.21,-2.19,3.0,3.0,3.0
1054,11.580097,t,75,218,225,76,218,237,316,238,9.26,-1.69,2.71,-100.87,-70.62,7.31,0.54,0.36,0.58,0.58,3.01,-5.81,-3.51,3.0,3.0,3.0
1055,11.595101,t,80,238,232,80,227,256,360,260,9.3,-1.8,2.52,-55.25,-41.5,17.06,0.54,0.36,0.58,0.58,1.0,-3.35,-2.59,3.0,3.0,3.0
1056,11.610104,t,75,235,226,77,216,237,336,256,9.31,-1.84,2.46,6.12,-30.5,12.38,0.54,0.36,0.58,0.58,0.18,-0.01,-2.55,3.0,3.0,3.0
1057,11.625108,t,75,238,226,76,216,239,343,263,9.33,-1.86,2.37,21.62,-30.56,7.25,0.54,0.36,0.58,0.58,-0.15,1.33,-2.38,3.0,3.0,3.0
1058,11.640111,t,74,237,223,77,218,243,349,273,9.35,-1.84,2.27,28.87,-38.63,0.25,0.53,0.37,0.58,0.58,-0.34,1.44,-2.22,3.0,3.0,3.0
1059,11.655114,t,74,237,224,78,218,245,354,282,9.37,-1.83,2.21,24.19,-42.88,0.19,0.53,0.37,0.58,0.58,-0.41,1.31,-1.84,3.0,3.0,3.0
1060,11.670118,t,74,248,227,82,230,265,391,299,9.39,-1.83,2.14,0.0,-46.5,4.5,0.52,0.38,0.58,0.58,0.25,1.1,-1.3,3.0,3.0,3.0
1061,11.685121,t,77,249,219,78,220,247,362,290,9.42,-1.85,1.99,-13.0,-45.38,7.06,0.52,0.38,0.57,0.57,0.38,1.16,-1.2,3.0,3.0,3.0
1062,11.700125,t,83,250,218,78,219,249,363,290,9.43,-1.87,1.91,-27.56,-43.25,8.19,0.52,0.38,0.57,0.57,0.35,1.28,-1.15,3.0,3.0,3.0
1063,11.715128,t,87,249,217,74,219,249,362,296,9.44,-1.9,1.65,-72.31,-41.38,-0.06,0.52,0.37,0.56,0.56,-0.25,2.37,-0.66,3.0,3.0,3.0
1064,11.730131,t,101,228,208,67,214,250,351,305,9.48,-1.96,1.55,-81.87,-42.19,-4.37,0.52,0.37,0.55,0.55,-0.04,2.06,-0.49,3.0,3.0,3.0
1065,11.745135,t,105,225,206,67,216,252,351,308,9.49,-1.97,1.45,-87.94,-42.38,-7.44,0.52,0.37,0.55,0.55,0.07,1.33,-0.6,3.0,3.0,3.0
1066,11.760138,t,108,220,204,66,216,257,348,310,9.5,-1.98,1.35,-92.25,-42.69,-8.69,0.52,0.37,0.54,0.54,0.11,0.96,-0.65,3.0,3.0,3.0
1067,11.775142,t,118,206,198,62,212,257,340,317,9.53,-1.99,1.15,-97.0,-42.0,-7.94,0.53,0.36,0.52,0.52,-0.04,-0.53,-1.45,3.0,3.0,3.0
1068,11.790145,t,120,203,196,61,214,258,338,326,9.55,-2.0,0.95,-86.25,-39.88,-8.75,0.53,0.36,0.52,0.52,0.0,-0.58,-1.43,3.0,3.0,3.0
1069,11.805149,t,125,203,191,60,216,260,334,326,9.56,-2.0,0.86,-79.75,-39.06,-8.25,0.53,0.36,0.51,0.51,-0.04,-0.48,-1.59,3.0,3.0,3.0
1070,11.820152,t,132,202,186,58,217,262,337,325,9.57,-1.99,0.69,-67.06,-39.13,-8.13,0.53,0.36,0.5,0.5,-0.23,-0.05,-1.2,3.0,3.0,3.0
1071,11.835155,t,136,200,184,58,215,258,330,322,9.58,-1.98,0.6,-60.5,-40.25,-8.94,0.53,0.35,0.49,0.49,-0.11,0.01,-0.9,3.0,3.0,3.0
1072,11.850158,t,142,197,181,58,215,258,331,324,9.59,-1.97,0.51,-54.94,-41.0,-9.44,0.53,0.35,0.49,0.49,-0.09,-0.05,-0.67,3.0,3.0,3.0
1073,11.865162,t,146,194,178,58,216,258,328,319,9.59,-1.96,0.43,-46.69,-42.56,-9.44,0.53,0.35,0.48,0.48,-0.27,-0.23,-0.13,3.0,3.0,3.0
1074,11.880165,t,155,184,170,58,216,255,326,322,9.61,-1.92,0.16,-45.38,-44.69,-8.56,0.53,0.35,0.47,0.47,-0.15,-0.27,0.1,3.0,3.0,3.0
1075,11.895169,t,160,187,169,59,218,257,329,328,9.61,-1.91,0.07,-47.13,-45.13,-7.31,0.53,0.35,0.47,0.47,-0.05,-0.01,0.36,3.0,3.0,3.0
1076,11.910172,t,167,181,168,60,220,258,332,327,9.61,-1.9,-0.01,-49.0,-44.75,-6.44,0.53,0.35,0.46,0.46,0.0,0.12,0.35,3.0,3.0,3.0
1077,11.925188,t,184,178,164,60,224,262,333,328,9.62,-1.86,-0.28,-55.0,-42.88,-8.38,0.53,0.35,0.45,0.45,0.36,0.49,0.35,3.0,3.0,3.0
1078,11.940192,t,194,172,165,60,224,261,336,332,9.62,-1.84,-0.36,-52.56,-42.0,-9.44,0.53,0.35,0.45,0.45,0.55,0.38,0.44,3.0,3.0,3.0
1079,11.955195,t,202,175,171,63,238,282,368,355,9.62,-1.82,-0.44,-46.94,-40.13,-9.69,0.53,0.35,0.44,0.44,0.5,0.34,0.54,3.0,3.0,3.0
1080,11.970198,t,209,175,172,61,232,270,334,334,9.62,-1.8,-0.52,-38.69,-37.88,-8.81,0.53,0.35,0.44,0.44,0.44,0.26,0.7,3.0,3.0,3.0
1081,11.985202,t,222,172,169,61,229,262,338,337,9.62,-1.78,-0.65,-22.44,-32.81,-4.69,0.53,0.35,0.43,0.43,1.13,-0.01,1.89,3.0,3.0,3.0
1082,12.000205,t,226,174,175,63,237,271,345,334,9.61,-1.77,-0.75,-19.62,-25.44,-0.19,0.53,0.35,0.43,0.43,1.06,0.07,2.16,3.0,3.0,3.0
1083,12.015208,t,227,167,169,62,230,261,338,338,9.61,-1.77,-0.79,-22.94,-22.44,2.94,0.53,0.35,0.43,0.43,0.93,0.51,2.41,3.0,3.0,3.0
1084,12.030212,t,230,155,166,61,229,261,333,336,9.6,-1.79,-0.88,-35.75,-19.37,7.44,0.52,0.35,0.42,0.42,0.46,1.16,2.55,3.0,3.0,3.0
1085,12.045215,t,233,153,166,61,232,262,330,340,9.59,-1.79,-0.92,-46.56,-14.63,5.06,0.53,0.35,0.42,0.42,0.14,1.4,1.97,3.0,3.0,3.0
1086,12.060219,t,233,148,166,61,232,262,328,340,9.59,-1.78,-0.95,-68.0,-3.87,-0.62,0.53,0.34,0.41,0.41,0.64,1.39,1.3,3.0,3.0,3.0
1087,12.075222,t,234,146,168,62,237,265,328,339,9.59,-1.75,-1.0,-72.62,0.56,-1.87,0.53,0.34,0.41,0.41,0.64,1.02,1.15,3.0,3.0,3.0
1088,12.090226,t,230,142,171,63,240,269,335,338,9.59,-1.74,-1.01,-74.69,6.56,-0.75,0.54,0.33,0.4,0.4,0.24,-0.28,1.26,3.0,3.0,3.0
1089,12.105229,t,234,139,172,66,234,260,328,339,9.6,-1.7,-1.03,-75.81,14.31,2.81,0.54,0.32,0.39,0.39,0.56,-0.72,1.48,3.0,3.0,3.0
1090,12.120232,t,232,139,178,68,233,264,327,319,9.6,-1.7,-1.02,-77.75,22.12,4.44,0.55,0.32,0.39,0.39,0.66,-0.86,2.02,3.0,3.0,3.0
1091,12.135236,t,229,135,181,69,235,271,341,319,9.6,-1.69,-0.99,-78.31,30.94,6.25,0.55,0.31,0.38,0.38,0.63,-0.91,2.46,3.0,3.0,3.0
1092,12.150239,t,231,134,184,69,226,262,322,299,9.61,-1.69,-0.94,-76.94,40.31,8.56,0.56,0.3,0.38,0.38,0.66,-1.39,3.48,3.0,3.0,3.0
1093,12.165242,t,227,134,177,69,219,255,303,285,9.62,-1.72,-0.8,-65.87,59.88,18.44,0.57,0.29,0.37,0.37,1.25,-1.05,3.24,3.0,3.0,3.0
1094,12.180246,t,214,124,153,59,197,229,254,262,9.62,-1.77,-0.57,-51.5,85.06,22.5,0.57,0.28,0.37,0.37,1.26,-0.23,2.65,3.0,3.0,3.0
1095,12.19525,t,223,146,150,61,191,225,240,252,9.62,-1.81,-0.43,-48.81,96.31,25.5,0.59,0.27,0.38,0.38,2.87,4.36,0.45,3.0,3.0,3.0
1096,12.210253,t,225,180,155,63,191,230,231,242,9.62,-1.88,-0.1,-48.06,111.87,20.12,0.59,0.26,0.38,0.38,5.1,5.65,-0.56,3.0,3.0,3.0
1097,12.225256,t,218,190,153,61,174,222,220,234,9.62,-1.89,0.08,-48.13,125.56,8.5,0.6,0.25,0.38,0.38,7.1,6.16,-0.55,3.0,3.0,3.0
1098,12.240259,t,198,188,153,62,141,202,199,218,9.61,-1.86,0.54,-42.0,154.44,-17.75,0.62,0.24,0.38,0.38,4.46,6.94,1.19,3.0,3.0,3.0
1099,12.255263,t,195,183,156,63,139,183,191,198,9.6,-1.83,0.78,-44.81,150.0,-21.69,0.64,0.22,0.37,0.37,3.61,6.77,0.59,3.0,3.0,3.0
1100,12.270266,t,180,171,162,63,136,171,188,174,9.56,-1.78,1.18,-67.94,129.12,-20.06,0.65,0.22,0.37,0.37,2.73,6.16,-1.58,3.0,3.0,3.0
1101,12.28527,t,173,154,160,63,129,154,161,159,9.52,-1.75,1.52,-102.69,116.69,-24.06,0.67,0.2,0.36,0.36,2.46,5.41,-2.33,3.0,3.0,3.0
1102,12.300273,t,157,144,162,63,126,156,157,151,9.5,-1.74,1.67,-121.87,113.0,-26.31,0.68,0.19,0.36,0.36,2.3,5.19,-2.82,3.0,3.0,3.0
1103,12.315277,t,150,139,162,60,122,150,148,146,9.48,-1.73,1.8,-137.87,109.12,-31.0,0.69,0.17,0.34,0.34,0.64,4.24,-4.52,3.0,3.0,3.0
1104,12.33028,t,146,139,158,59,121,142,144,140,9.45,-1.72,1.92,-150.62,96.62,-38.88,0.7,0.16,0.33,0.33,0.33,3.96,-4.81,3.0,3.0,3.0
1105,12.345283,t,147,152,155,60,120,133,137,131,9.39,-1.68,2.24,-140.37,86.06,-41.88,0.72,0.15,0.31,0.31,0.92,2.57,-4.78,3.0,3.0,3.0
1106,12.360287,t,138,157,154,60,121,131,132,129,9.37,-1.66,2.34,-129.5,83.87,-40.69,0.72,0.14,0.31,0.31,0.76,2.1,-4.75,3.0,3.0,3.0
1107,12.375296,t,136,159,152,59,121,127,132,125,9.35,-1.65,2.44,-115.44,82.19,-39.06,0.73,0.13,0.3,0.3,0.38,2.01,-4.39,3.0,3.0,3.0
1108,12.390299,t,126,161,151,61,120,125,130,124,9.3,-1.61,2.63,-84.81,73.06,-36.56,0.75,0.11,0.28,0.28,-0.8,-0.45,-3.25,3.0,3.0,3.0
1109,12.405315,t,123,161,153,61,120,122,129,120,9.26,-1.54,2.8,-47.5,61.44,-39.25,0.75,0.11,0.28,0.28,-0.72,-0.86,-3.39,3.0,3.0,3.0
1110,12.420324,t,106,168,162,65,125,126,138,127,9.25,-1.49,2.89,-28.56,59.75,-43.19,0.76,0.11,0.27,0.27,-1.44,-1.17,-3.28,3.0,3.0,3.0
1111,12.435327,t,95,161,160,59,116,118,127,116,9.23,-1.42,2.97,-11.56,54.38,-45.44,0.76,0.11,0.27,0.27,-1.78,-1.5,-3.3,3.0,3.0,3.0
1112,12.450331,t,92,167,165,59,117,118,127,114,9.22,-1.34,3.05,17.0,40.31,-50.75,0.77,0.11,0.26,0.26,-1.9,-1.19,-3.08,3.0,3.0,3.0
1113,12.465334,t,94,172,170,63,121,122,139,120,9.19,-1.05,3.23,29.69,30.69,-55.38,0.77,0.12,0.26,0.26,-1.25,-0.89,-2.89,3.0,3.0,3.0
1114,12.480338,t,93,195,164,60,114,106,132,113,9.19,-0.95,3.28,32.0,28.75,-55.38,0.78,0.13,0.26,0.26,-0.94,-0.96,-3.02,3.0,3.0,3.0
1115,12.495341,t,93,203,162,60,117,104,135,110,9.18,-0.84,3.33,33.75,26.56,-52.44,0.78,0.13,0.26,0.26,-0.92,0.05,-2.67,3.0,3.0,3.0
1116,12.510344,t,91,205,158,61,118,101,138,104,9.16,-0.64,3.42,33.56,23.62,-50.19,0.78,0.14,0.25,0.25,-1.08,0.43,-2.3,3.0,3.0,3.0
1117,12.525348,t,95,210,160,63,126,108,150,102,9.16,-0.54,3.47,29.06,12.06,-45.75,0.78,0.14,0.25,0.25,-1.49,1.52,-1.2,3.0,3.0,3.0
1118,12.540351,t,98,200,150,59,122,102,140,93,9.15,-0.37,3.48,25.44,3.87,-43.38,0.79,0.15,0.25,0.25,-1.53,1.72,-0.88,3.0,3.0,3.0
1119,12.555355,t,98,202,152,65,133,109,150,96,9.16,-0.29,3.48,19.81,-5.19,-41.81,0.79,0.15,0.24,0.24,-1.08,2.04,-0.46,3.0,3.0,3.0
1120,12.570357,t,97,201,148,62,126,104,141,86,9.18,-0.17,3.43,-0.37,-19.12,-37.13,0.79,0.16,0.24,0.24,-0.94,2.41,-0.27,3.0,3.0,3.0
1121,12.585361,t,95,197,146,57,124,105,140,82,9.2,-0.12,3.39,-11.63,-23.31,-33.81,0.79,0.16,0.24,0.24,-0.86,2.51,-0.23,3.0,3.0,3.0
1122,12.600365,t,97,201,149,58,124,107,146,82,9.22,-0.03,3.31,-26.06,-27.06,-29.19,0.78,0.16,0.23,0.23,-0.81,2.24,1.17,3.0,3.0,3.0
1123,12.615368,t,102,200,148,58,122,107,150,82,9.26,0.02,3.22,-31.56,-28.81,-29.0,0.78,0.16,0.22,0.22,-0.83,2.23,1.28,3.0,3.0,3.0
1124,12.630371,t,102,207,150,58,121,112,152,85,9.27,0.04,3.18,-37.69,-29.0,-30.44,0.78,0.16,0.22,0.22,-0.85,2.24,1.3,3.0,3.0,3.0
1125,12.645375,t,104,212,156,58,121,118,156,86,9.29,0.07,3.13,-40.06,-29.06,-31.19,0.78,0.16,0.22,0.22,-0.6,2.4,1.32,3.0,3.0,3.0
1126,12.660378,t,99,215,167,59,119,135,171,89,9.32,0.13,3.04,-46.94,-28.37,-31.19,0.78,0.16,0.2,0.2,0.37,2.67,1.45,3.0,3.0,3.0
1127,12.674381,t,104,218,169,58,119,139,178,92,9.34,0.18,2.95,-50.69,-28.12,-31.31,0.78,0.16,0.2,0.2,1.8,2.12,2.24,3.0,3.0,3.0
1128,12.689385,t,106,224,176,61,126,156,195,98,9.35,0.2,2.92,-52.75,-21.94,-29.56,0.78,0.15,0.19,0.19,1.73,1.87,2.69,3.0,3.0,3.0
1129,12.705389,t,109,226,176,61,125,156,202,102,9.36,0.21,2.9,-55.44,-10.13,-25.56,0.78,0.15,0.18,0.18,1.38,1.39,2.86,3.0,3.0,3.0
1130,12.720392,t,103,224,171,57,117,148,197,98,9.35,0.2,2.93,-71.44,9.94,-14.69,0.79,0.14,0.18,0.18,-0.47,0.33,2.04,3.0,3.0,3.0
1131,12.734395,t,109,223,175,56,116,152,211,110,9.34,0.15,2.98,-84.12,14.25,-8.19,0.79,0.13,0.17,0.17,-0.74,0.47,1.66,3.0,3.0,3.0
1132,12.750399,t,111,223,178,56,116,156,214,112,9.33,0.11,3.0,-83.81,15.31,-6.69,0.79,0.13,0.16,0.16,-1.57,0.86,0.74,3.0,3.0,3.0
1133,12.764402,t,112,224,176,56,114,161,219,117,9.32,0.08,3.03,-84.31,15.88,-5.06,0.79,0.12,0.16,0.16,-2.47,1.01,-0.34,3.0,3.0,3.0
1134,12.779405,t,115,226,178,56,112,162,224,118,9.31,0.04,3.06,-90.62,11.5,-2.81,0.8,0.11,0.15,0.15,-2.46,0.96,-0.7,3.0,3.0,3.0
1135,12.794409,t,118,230,185,59,119,178,244,126,9.3,-0.04,3.09,-89.5,7.56,-2.37,0.8,0.1,0.14,0.14,-1.65,0.56,0.19,3.0,3.0,3.0
1136,12.809412,t,127,238,191,58,110,180,242,125,9.3,-0.12,3.09,-78.87,-4.44,2.44,0.8,0.08,0.13,0.13,-1.27,0.17,1.22,3.0,3.0,3.0
1137,12.824416,t,139,239,195,60,112,184,246,127,9.3,-0.17,3.08,-77.5,-7.69,5.5,0.8,0.08,0.13,0.13,-0.72,-0.03,1.27,3.0,3.0,3.0
1138,12.839419,t,148,237,191,60,109,181,244,126,9.31,-0.27,3.05,-75.56,-8.69,8.13,0.8,0.07,0.13,0.13,-0.68,0.21,1.11,3.0,3.0,3.0
1139,12.854422,t,158,242,195,61,110,184,250,126,9.31,-0.33,3.03,-71.69,-8.0,11.94,0.8,0.06,0.12,0.12,-0.98,0.9,1.16,3.0,3.0,3.0
1140,12.869425,t,164,244,191,62,110,181,262,123,9.32,-0.44,3.0,-64.62,-7.62,13.13,0.8,0.05,0.11,0.11,-1.57,0.84,1.59,3.0,3.0,3.0
1141,12.884429,t,161,244,190,63,110,178,266,116,9.33,-0.49,2.97,-60.81,-10.63,13.13,0.8,0.05,0.11,0.11,-1.53,0.52,1.63,3.0,3.0,3.0
1142,12.899432,t,158,247,189,66,113,186,284,116,9.33,-0.54,2.95,-56.0,-14.88,12.63,0.8,0.04,0.11,0.11,-0.37,-0.9,1.9,3.0,3.0,3.0
1143,12.915436,t,152,242,179,63,107,166,280,102,9.36,-0.66,2.82,-24.56,-27.44,14.75,0.8,0.04,0.11,0.11,1.69,-1.21,0.92,3.0,3.0,3.0
1144,12.93044,t,147,241,181,66,110,162,282,99,9.38,-0.69,2.77,-8.38,-35.06,15.81,0.79,0.04,0.11,0.11,3.06,-0.57,0.21,3.0,3.0,3.0
1145,12.944443,t,144,242,185,65,110,170,285,100,9.39,-0.71,2.7,10.88,-39.69,14.88,0.79,0.04,0.11,0.11,4.1,1.65,0.64,3.0,3.0,3.0
1146,12.959446,t,138,243,188,59,111,177,295,101,9.45,-0.68,2.5,80.06,-46.0,5.25,0.78,0.05,0.12,0.12,4.82,2.22,2.07,3.0,3.0,3.0
1147,12.974449,t,122,244,201,57,118,179,295,102,9.46,-0.64,2.46,103.87,-34.0,5.31,0.78,0.05,0.12,0.12,3.29,1.59,2.51,3.0,3.0,3.0
1148,12.990453,t,119,240,206,58,134,180,298,111,9.47,-0.61,2.44,114.81,-19.75,9.56,0.78,0.06,0.13,0.13,1.9,1.87,1.84,3.0,3.0,3.0
1149,13.005457,t,119,239,208,58,144,183,300,121,9.48,-0.59,2.43,113.87,-11.88,14.31,0.78,0.07,0.14,0.14,1.06,2.92,0.76,3.0,3.0,3.0
1150,13.019459,t,111,242,198,62,161,195,332,140,9.49,-0.58,2.39,32.94,-20.75,26.87,0.77,0.08,0.15,0.15,-2.8,5.84,-2.67,3.0,3.0,3.0
1151,13.034463,t,108,242,199,62,166,200,350,156,9.5,-0.67,2.32,-22.12,-26.19,31.81,0.77,0.08,0.15,0.15,-3.83,5.15,-3.8,3.0,3.0,3.0
1152,13.049466,t,105,240,202,63,174,204,372,164,9.51,-0.76,2.25,-68.19,-35.63,36.88,0.77,0.07,0.15,0.15,-3.57,2.64,-3.88,3.0,3.0,3.0
1153,13.06447,t,96,238,206,65,174,208,393,182,9.54,-0.95,2.05,-102.75,-58.75,35.44,0.76,0.05,0.14,0.14,-1.07,-0.12,-2.29,3.0,3.0,3.0
1154,13.079473,t,87,223,212,65,180,218,412,194,9.55,-1.03,1.92,-104.62,-65.81,27.25,0.76,0.04,0.14,0.14,0.62,-1.61,-1.96,3.0,3.0,3.0
1155,13.094476,t,80,221,211,65,179,218,417,198,9.57,-1.1,1.8,-98.5,-64.69,18.62,0.75,0.04,0.13,0.13,1.95,-4.57,-1.91,3.0,3.0,3.0
1156,13.11048,t,78,226,216,69,190,235,479,213,9.6,-1.19,1.59,-66.87,-49.38,17.12,0.75,0.03,0.13,0.13,1.24,-3.47,-1.25,3.0,3.0,3.0
1157,13.124483,t,73,218,210,63,185,220,424,216,9.61,-1.29,1.45,-31.19,-36.0,24.06,0.75,0.02,0.13,0.13,0.27,-1.6,-1.0,3.0,3.0,3.0
1158,13.139486,t,74,216,211,63,185,222,427,221,9.61,-1.33,1.39,-22.62,-29.5,22.81,0.75,0.02,0.13,0.13,-0.23,-0.7,-0.83,3.0,3.0,3.0
1159,13.15449,t,74,216,211,65,184,222,425,226,9.61,-1.37,1.35,-20.5,-25.5,20.44,0.74,0.02,0.13,0.13,-0.56,0.13,-0.74,3.0,3.0,3.0
1160,13.170494,t,74,217,210,65,186,226,429,234,9.62,-1.47,1.18,-35.13,-31.87,14.81,0.74,0.01,0.12,0.12,-0.29,0.15,-0.73,3.0,3.0,3.0
1161,13.184497,t,74,214,208,66,187,230,430,238,9.62,-1.5,1.11,-38.06,-35.0,14.0,0.74,0.01,0.12,0.12,-0.1,0.13,-0.56,3.0,3.0,3.0
1162,13.2005,t,73,217,206,66,187,232,422,242,9.62,-1.53,1.04,-42.63,-36.94,13.5,0.73,-0.0,0.12,0.12,-0.33,0.46,0.1,3.0,3.0,3.0
1163,13.214503,t,78,213,204,66,186,232,424,248,9.63,-1.59,0.9,-55.5,-34.31,9.88,0.73,-0.0,0.12,0.12,-0.51,0.46,0.36,3.0,3.0,3.0
1164,13.229507,t,77,214,200,62,184,231,420,251,9.63,-1.61,0.82,-62.0,-33.06,6.12,0.73,-0.01,0.11,0.11,-0.4,0.58,0.64,3.0,3.0,3.0
1165,13.245511,t,75,210,197,62,185,226,412,254,9.64,-1.65,0.68,-75.19,-30.5,4.12,0.72,-0.02,0.1,0.1,-0.29,0.78,0.73,3.0,3.0,3.0
1166,13.260514,t,77,208,198,62,189,227,404,255,9.64,-1.66,0.61,-87.69,-28.75,1.44,0.72,-0.03,0.09,0.09,-0.04,0.69,0.43,3.0,3.0,3.0
1167,13.274517,t,82,201,194,62,186,220,404,257,9.64,-1.68,0.46,-89.81,-27.0,1.25,0.72,-0.04,0.09,0.09,-0.27,0.38,0.06,3.0,3.0,3.0
1168,13.28952,t,82,202,191,61,195,221,399,262,9.65,-1.69,0.39,-89.94,-26.37,1.06,0.72,-0.04,0.08,0.08,-0.35,0.18,0.05,3.0,3.0,3.0
1169,13.304524,t,85,205,191,61,201,219,404,266,9.65,-1.7,0.32,-86.62,-26.81,1.06,0.71,-0.05,0.07,0.07,-0.41,0.01,0.15,3.0,3.0,3.0
1170,13.31954,t,92,191,190,60,200,212,391,270,9.65,-1.72,0.11,-68.37,-31.81,4.06,0.71,-0.06,0.06,0.06,-0.68,-0.53,0.46,3.0,3.0,3.0
1171,13.334543,t,90,188,188,62,200,213,390,273,9.65,-1.73,0.03,-62.88,-32.63,4.87,0.71,-0.06,0.06,0.06,-0.49,-0.58,0.54,3.0,3.0,3.0
1172,13.349546,t,88,183,188,60,201,212,386,274,9.65,-1.74,-0.03,-58.31,-32.88,4.5,0.7,-0.07,0.05,0.05,0.19,-0.54,0.69,3.0,3.0,3.0
1173,13.36455,t,93,184,190,61,204,217,376,272,9.64,-1.74,-0.1,-55.25,-29.75,4.25,0.7,-0.08,0.05,0.05,0.88,-0.35,0.68,3.0,3.0,3.0
1174,13.379553,t,97,178,184,58,199,211,367,270,9.64,-1.75,-0.22,-55.88,-25.94,4.5,0.7,-0.08,0.04,0.04,-0.03,-0.2,0.44,3.0,3.0,3.0
1175,13.394584,t,102,178,180,58,204,212,368,272,9.64,-1.76,-0.33,-53.94,-20.81,3.5,0.69,-0.09,0.04,0.04,-0.63,-0.12,0.64,3.0,3.0,3.0
1176,13.409587,t,104,181,184,60,214,221,380,274,9.63,-1.77,-0.44,-56.38,-25.69,3.44,0.69,-0.09,0.04,0.04,-0.99,0.16,0.86,3.0,3.0,3.0
1177,13.424604,t,106,178,180,59,208,214,353,277,9.63,-1.77,-0.51,-59.38,-29.19,3.0,0.69,-0.1,0.03,0.03,-0.92,0.35,0.8,3.0,3.0,3.0
1178,13.439613,t,110,175,178,58,206,211,360,275,9.62,-1.76,-0.58,-62.31,-33.25,2.0,0.68,-0.1,0.03,0.03,-0.76,0.19,0.7,3.0,3.0,3.0
1179,13.454646,t,114,173,175,59,206,211,359,285,9.62,-1.76,-0.66,-64.12,-35.69,0.69,0.68,-0.11,0.02,0.02,-0.52,0.25,0.78,3.0,3.0,3.0
1180,13.469649,t,126,161,177,65,214,226,386,309,9.61,-1.72,-0.9,-61.44,-37.25,-2.0,0.67,-0.11,0.02,0.02,0.18,0.14,0.97,3.0,3.0,3.0
1181,13.484653,t,133,159,173,62,206,212,359,296,9.6,-1.71,-0.98,-58.81,-36.5,-0.56,0.67,-0.12,0.01,0.01,0.29,0.06,0.95,3.0,3.0,3.0
1182,13.499656,t,142,155,169,62,207,213,360,296,9.59,-1.7,-1.05,-56.19,-34.56,1.0,0.67,-0.12,0.01,0.01,0.13,0.13,0.74,3.0,3.0,3.0
1183,13.514674,t,151,153,173,66,219,233,392,312,9.58,-1.69,-1.19,-54.19,-28.69,3.0,0.66,-0.13,0.0,0.0,-0.04,0.01,0.83,3.0,3.0,3.0
1184,13.529677,t,158,144,172,66,220,230,374,304,9.57,-1.69,-1.24,-51.38,-26.69,3.19,0.66,-0.13,0.0,0.0,-0.17,0.0,1.13,3.0,3.0,3.0
1185,13.544681,t,170,141,164,66,226,233,365,305,9.56,-1.67,-1.35,-44.94,-23.44,1.87,0.65,-0.14,-0.01,-0.01,-1.01,0.08,2.06,3.0,3.0,3.0
1186,13.560684,t,174,135,159,62,216,219,344,296,9.55,-1.65,-1.46,-47.75,-24.06,-0.62,0.65,-0.14,-0.01,-0.01,-0.89,0.03,2.07,3.0,3.0,3.0
1187,13.575744,t,179,134,158,61,215,219,342,294,9.54,-1.63,-1.51,-50.31,-24.0,-1.87,0.65,-0.14,-0.01,-0.01,-0.42,0.07,1.92,3.0,3.0,3.0
1188,13.590747,t,186,131,157,62,217,220,342,295,9.54,-1.62,-1.56,-51.56,-23.12,-2.06,0.65,-0.15,-0.02,-0.02,-0.2,0.09,1.76,3.0,3.0,3.0
1189,13.60575,t,195,126,155,62,219,224,338,294,9.53,-1.6,-1.62,-51.19,-22.37,-1.94,0.64,-0.15,-0.02,-0.02,0.11,0.24,1.26,3.0,3.0,3.0
1190,13.619754,t,214,119,149,61,218,228,330,299,9.52,-1.55,-1.76,-54.69,-19.5,-1.94,0.64,-0.16,-0.03,-0.03,0.32,0.39,0.63,3.0,3.0,3.0
1191,13.634757,t,222,120,147,61,222,233,330,298,9.51,-1.52,-1.8,-56.75,-19.37,-2.19,0.64,-0.16,-0.03,-0.03,0.04,0.65,0.94,3.0,3.0,3.0
1192,13.64976,t,230,122,145,61,225,236,330,307,9.51,-1.5,-1.85,-63.88,-22.44,-7.5,0.63,-0.16,-0.04,-0.04,0.03,0.9,1.66,3.0,3.0,3.0
1193,13.665764,t,240,127,145,60,226,236,328,308,9.49,-1.43,-1.96,-70.5,-25.87,-9.69,0.63,-0.17,-0.04,-0.04,0.37,0.73,1.39,3.0,3.0,3.0
1194,13.680768,t,250,130,143,61,227,236,327,306,9.49,-1.38,-2.03,-75.69,-27.19,-10.88,0.63,-0.17,-0.05,-0.05,0.63,0.5,1.07,3.0,3.0,3.0
1195,13.695771,t,256,133,142,61,226,240,323,302,9.48,-1.33,-2.09,-77.75,-26.69,-11.63,0.62,-0.18,-0.06,-0.06,1.31,-0.91,0.38,3.0,3.0,3.0
1196,13.710774,t,263,143,142,62,226,242,315,297,9.47,-1.2,-2.23,-51.5,-18.0,-15.38,0.62,-0.18,-0.07,-0.07,1.62,-1.21,1.11,3.0,3.0,3.0
1197,13.725778,t,262,146,140,60,226,242,308,291,9.46,-1.15,-2.26,-42.81,-15.88,-16.0,0.62,-0.18,-0.07,-0.07,1.39,-0.89,2.29,3.0,3.0,3.0
1198,13.740781,t,266,155,145,65,240,263,328,315,9.46,-1.11,-2.3,-41.31,-14.56,-15.44,0.61,-0.19,-0.08,-0.08,0.81,-0.84,2.67,3.0,3.0,3.0
1199,13.755784,t,268,160,143,62,231,247,304,293,9.46,-1.02,-2.36,-47.69,-16.19,-16.69,0.61,-0.19,-0.08,-0.08,0.81,-0.94,2.85,3.0,3.0,3.0
1200,13.770788,t,264,169,147,62,233,249,306,293,9.45,-0.97,-2.4,-49.81,-19.5,-19.56,0.61,-0.19,-0.09,-0.09,1.48,-1.89,3.73,3.0,3.0,3.0
1201,13.785791,t,258,189,150,61,230,246,307,289,9.44,-0.87,-2.48,-39.75,-15.81,-20.25,0.6,-0.19,-0.1,-0.1,3.68,-3.9,5.23,3.0,3.0,3.0
1202,13.800795,t,243,200,153,62,224,233,295,289,9.44,-0.77,-2.53,-35.69,-9.25,-19.44,0.6,-0.19,-0.1,-0.1,4.87,-4.48,5.25,3.0,3.0,3.0
1203,13.815803,t,217,215,154,62,222,222,286,278,9.44,-0.73,-2.53,-33.19,2.69,-16.94,0.6,-0.19,-0.1,-0.1,5.39,-4.57,5.02,3.0,3.0,3.0
1204,13.830807,t,205,228,152,60,213,207,264,260,9.45,-0.7,-2.5,-25.37,20.12,-13.0,0.6,-0.19,-0.1,-0.1,5.64,-4.11,4.89,3.0,3.0,3.0
1205,13.84581,t,196,244,160,61,198,198,249,245,9.47,-0.68,-2.44,21.94,62.81,-5.69,0.61,-0.19,-0.1,-0.1,4.55,-0.35,6.66,3.0,3.0,3.0
1206,13.860814,t,195,234,156,65,168,183,220,200,9.57,-0.69,-2.01,45.06,107.37,-9.63,0.62,-0.18,-0.1,-0.1,3.47,2.15,7.19,3.0,3.0,3.0
1207,13.874817,t,204,191,143,60,158,175,203,187,9.61,-0.67,-1.79,34.19,127.44,-15.13,0.64,-0.17,-0.1,-0.1,2.18,2.61,6.3,3.0,3.0,3.0
1208,13.89082,t,204,170,138,60,149,168,191,174,9.66,-0.65,-1.55,-4.37,152.5,-19.19,0.65,-0.17,-0.11,-0.11,0.96,1.65,3.91,3.0,3.0,3.0
1209,13.905824,t,191,149,134,61,143,158,179,174,9.73,-0.58,-1.04,-19.69,153.12,-15.56,0.66,-0.17,-0.11,-0.11,0.83,1.05,2.67,3.0,3.0,3.0
1210,13.920827,t,186,139,130,60,142,151,170,176,9.75,-0.56,-0.8,-32.81,140.81,-4.81,0.68,-0.16,-0.12,-0.12,3.26,0.1,-0.91,3.0,3.0,3.0
1211,13.935844,t,170,132,124,57,137,145,152,174,9.78,-0.55,-0.34,-41.19,128.94,4.19,0.69,-0.16,-0.12,-0.12,3.33,-0.73,-2.48,3.0,3.0,3.0
1212,13.950848,t,162,128,124,57,138,137,143,174,9.78,-0.57,0.06,-39.75,121.81,8.56,0.7,-0.17,-0.13,-0.13,1.96,-1.27,-2.66,3.0,3.0,3.0
1213,13.965852,t,154,127,125,57,134,129,138,167,9.78,-0.59,0.25,-32.13,112.87,14.0,0.7,-0.17,-0.13,-0.13,1.18,-1.72,-2.89,3.0,3.0,3.0
1214,13.980855,t,147,126,127,56,131,127,132,152,9.77,-0.62,0.42,-14.5,104.12,17.56,0.72,-0.17,-0.13,-0.13,1.03,-2.07,-3.08,3.0,3.0,3.0
1215,13.995859,t,146,127,132,58,130,122,130,143,9.76,-0.65,0.59,41.38,100.12,16.75,0.72,-0.16,-0.13,-0.13,0.57,-2.34,-2.6,3.0,3.0,3.0
1216,14.010862,t,133,136,146,59,116,118,121,123,9.71,-0.7,1.12,84.75,100.37,16.19,0.74,-0.15,-0.12,-0.12,0.37,-1.82,-1.93,3.0,3.0,3.0
1217,14.024865,t,130,139,146,58,114,114,120,120,9.69,-0.71,1.3,91.75,99.81,18.87,0.74,-0.14,-0.11,-0.11,0.39,-1.82,-1.51,3.0,3.0,3.0
1218,14.039873,t,127,140,148,58,117,110,120,114,9.66,-0.73,1.47,92.06,98.06,22.12,0.75,-0.14,-0.11,-0.11,0.84,-1.95,-1.73,3.0,3.0,3.0
1219,14.054878,t,120,143,150,58,117,109,119,110,9.63,-0.75,1.65,90.19,96.44,33.5,0.77,-0.12,-0.09,-0.09,0.16,-1.74,-2.99,3.0,3.0,3.0
1220,14.069881,t,99,150,154,61,115,103,119,108,9.52,-0.82,2.16,93.25,95.5,35.75,0.78,-0.12,-0.08,-0.08,-0.42,-1.48,-3.15,3.0,3.0,3.0
1221,14.084884,t,98,154,150,60,117,98,114,106,9.48,-0.85,2.32,100.44,92.69,36.38,0.79,-0.11,-0.07,-0.07,-0.65,-1.46,-3.25,3.0,3.0,3.0
1222,14.100887,t,96,162,150,60,118,94,115,104,9.4,-0.88,2.63,123.0,78.44,43.56,0.79,-0.1,-0.06,-0.06,-0.81,-1.86,-3.91,3.0,3.0,3.0
1223,14.114891,t,95,170,152,63,124,99,122,108,9.36,-0.89,2.77,141.12,74.25,47.5,0.8,-0.09,-0.05,-0.05,-1.08,-0.77,-4.15,3.0,3.0,3.0
1224,14.130894,t,94,172,149,63,116,93,111,103,9.28,-0.89,3.04,160.87,66.19,47.25,0.81,-0.08,-0.03,-0.03,-1.91,-0.08,-4.37,3.0,3.0,3.0
1225,14.144898,t,90,174,150,62,116,93,115,102,9.24,-0.87,3.16,163.69,61.88,45.19,0.82,-0.06,-0.0,-0.0,-2.2,0.32,-4.49,3.0,3.0,3.0
1226,14.159923,t,92,177,148,62,116,92,118,102,9.16,-0.83,3.38,155.5,50.19,42.25,0.82,-0.05,0.01,0.01,-2.46,0.87,-4.53,3.0,3.0,3.0
1227,14.174917,t,86,185,146,62,116,90,120,98,9.1,-0.79,3.54,135.75,37.44,40.69,0.82,-0.03,0.03,0.03,-2.72,1.71,-4.43,3.0,3.0,3.0
1228,14.189921,t,86,187,146,61,116,90,121,97,9.08,-0.78,3.61,122.19,30.75,39.81,0.83,-0.03,0.03,0.03,-2.8,1.79,-4.4,3.0,3.0,3.0
1229,14.204924,t,87,188,146,62,117,91,125,94,9.06,-0.77,3.66,108.69,23.62,38.06,0.83,-0.01,0.05,0.05,-2.85,1.65,-4.44,3.0,3.0,3.0
1230,14.219927,t,82,187,143,61,114,92,127,90,9.04,-0.76,3.7,89.56,7.31,33.44,0.83,-0.01,0.06,0.06,-2.86,1.51,-4.35,3.0,3.0,3.0
1231,14.234931,t,86,195,136,61,109,91,145,85,9.03,-0.75,3.72,78.19,-10.63,29.94,0.83,-0.0,0.07,0.07,-2.84,1.83,-4.02,3.0,3.0,3.0
1232,14.249934,t,92,196,137,65,117,100,159,88,9.04,-0.75,3.7,75.25,-19.0,28.75,0.83,0.0,0.07,0.07,-2.73,1.82,-3.86,3.0,3.0,3.0
1233,14.264937,t,98,198,135,59,112,94,161,86,9.06,-0.74,3.67,75.12,-25.75,28.5,0.83,0.01,0.08,0.08,-2.68,1.73,-3.52,3.0,3.0,3.0
1234,14.279953,t,98,195,140,61,116,102,182,90,9.07,-0.74,3.63,75.5,-32.0,28.37,0.82,0.02,0.09,0.09,-2.54,1.67,-3.08,3.0,3.0,3.0
1235,14.29497,t,106,197,141,63,118,103,186,90,9.12,-0.73,3.51,64.69,-46.56,24.5,0.82,0.02,0.1,0.1,-1.0,1.93,-0.81,3.0,3.0,3.0
1236,14.309972,t,107,207,130,62,123,109,190,85,9.18,-0.74,3.34,39.06,-60.75,16.12,0.81,0.03,0.1,0.1,-0.66,1.76,-0.15,3.0,3.0,3.0
1237,14.324976,t,106,215,130,63,130,121,204,88,9.22,-0.74,3.25,33.38,-64.37,11.88,0.81,0.03,0.11,0.11,-0.32,1.39,1.73,3.0,3.0,3.0
1238,14.339979,t,110,222,132,61,124,124,191,80,9.29,-0.72,3.03,52.31,-72.0,7.44,0.8,0.03,0.11,0.11,0.61,0.79,3.7,3.0,3.0,3.0
1239,14.354998,t,108,226,134,61,126,137,191,78,9.33,-0.69,2.93,77.94,-72.62,6.31,0.8,0.04,0.11,0.11,1.45,0.54,4.61,3.0,3.0,3.0
1240,14.370001,t,120,237,150,71,127,152,196,74,9.38,-0.59,2.77,127.06,-49.69,5.62,0.79,0.07,0.13,0.13,3.25,0.37,6.43,3.0,3.0,3.0
1241,14.385005,t,122,241,155,72,126,146,191,70,9.41,-0.48,2.71,148.87,-19.19,6.25,0.79,0.08,0.14,0.14,5.09,-0.42,8.71,3.0,3.0,3.0
1242,14.400008,t,113,238,155,72,125,141,190,71,9.41,-0.42,2.72,148.44,0.88,7.94,0.79,0.08,0.15,0.15,5.04,-0.6,7.94,3.0,3.0,3.0
1243,14.415011,t,110,236,155,67,124,138,195,70,9.39,-0.37,2.77,139.56,24.69,13.13,0.79,0.09,0.16,0.16,3.97,-0.45,6.67,3.0,3.0,3.0
1244,14.430016,t,106,226,165,62,120,113,211,67,9.34,-0.33,2.94,114.25,52.63,24.69,0.79,0.11,0.18,0.18,0.66,1.79,2.09,3.0,3.0,3.0
1245,14.445018,t,106,227,162,63,120,114,214,77,9.31,-0.32,3.03,86.19,48.06,34.75,0.79,0.11,0.19,0.19,-0.47,4.06,0.07,3.0,3.0,3.0
1246,14.460022,t,103,230,171,63,122,122,216,82,9.26,-0.36,3.18,63.0,39.06,38.56,0.79,0.12,0.19,0.19,-0.78,4.52,-1.06,3.0,3.0,3.0
1247,14.475024,t,96,226,181,67,127,138,221,96,9.23,-0.45,3.25,13.5,13.06,37.31,0.79,0.11,0.2,0.2,-1.6,1.9,-0.95,3.0,3.0,3.0
1248,14.490029,t,87,230,210,66,146,162,246,135,9.24,-0.5,3.23,2.44,-13.81,31.37,0.79,0.11,0.2,0.2,-0.15,2.22,0.81,3.0,3.0,3.0
1249,14.505032,t,88,242,220,68,147,170,258,151,9.26,-0.55,3.15,-54.06,-55.19,17.19,0.78,0.11,0.2,0.2,7.25,2.59,-6.68,3.0,3.0,3.0
1250,14.520035,t,100,214,231,66,145,182,254,174,9.31,-0.65,3.0,-48.69,-31.87,10.44,0.78,0.1,0.2,0.2,6.2,-0.04,-5.14,3.0,3.0,3.0
1251,14.535052,t,106,215,224,61,148,188,247,199,9.31,-0.67,3.0,8.56,3.25,31.19,0.78,0.1,0.2,0.2,-3.25,2.19,-4.73,3.0,3.0,3.0
